time,accel_x,accel_y,accel_z,gyro_x,gyro_y,gyro_z,frame_number
1784729908295000,0.459601,5.918339,7.807922,0.011834,-0.006786,0.009172,2
1784729908305000,0.449938,5.937474,7.788768,0.011851,-0.006246,0.010236,3
1784729908315000,0.440636,5.947256,7.803209,0.012936,-0.005192,0.010744,4
1784729908325000,0.449938,5.937474,7.788768,0.011868,-0.005706,0.011299,5
1784729908335000,0.474039,5.937315,7.797992,0.009734,-0.005150,0.010800,6
1784729908345000,0.473780,5.937180,7.778834,0.007581,-0.006718,0.010848,7
1784729908355000,0.488089,5.922694,7.783515,0.005976,-0.005646,0.009270,8
1784729908365000,0.487821,5.908242,7.774040,0.005408,-0.007246,0.007689,9
1784729908375000,0.492643,5.917752,7.769110,0.004337,-0.006182,0.006101,10
1784729908385000,0.483322,5.932295,7.778727,0.006983,-0.006760,0.004457,11
1784729908395000,0.469069,5.932498,7.788519,0.006436,-0.008344,0.005010,12
1784729908405000,0.450132,5.937575,7.803136,0.010731,-0.005746,0.004384,13
1784729908415000,0.497613,5.922569,7.778584,0.008577,-0.007840,0.004968,14
1784729908425000,0.493170,5.932339,7.797742,0.008044,-0.007306,0.004441,15
1784729908435000,0.478787,5.932475,7.797956,0.006996,-0.004642,0.003377,16
1784729908446000,0.488357,5.937145,7.792990,0.006447,-0.004120,0.001250,17
1784729908456000,0.479018,5.956449,7.797782,0.005386,-0.003575,0.001266,18
1784729908466000,0.469050,5.937260,7.783695,0.005925,-0.003577,0.001790,19
1784729908476000,0.464524,5.951757,7.793241,0.004858,-0.003564,0.001808,20
1784729908486000,0.483655,5.946780,7.792991,0.005925,-0.003577,0.001790,21
1784729908496000,0.473927,5.965882,7.769048,0.003263,-0.003011,0.001834,22
1784729908506000,0.483433,5.937123,7.783482,0.002195,-0.003525,0.002389,23
1784729908516000,0.493003,5.941794,7.778516,0.001128,-0.002983,0.001871,24
1784729908526000,0.478620,5.941930,7.778729,-0.001562,-0.002965,-0.000215,25
1784729908536000,0.493022,5.937033,7.783340,-0.002083,-0.001895,-0.000212,26
1784729908546000,0.488384,5.946701,7.788131,-0.003150,-0.001881,-0.000193,27
1784729908556000,0.483655,5.946780,7.792991,-0.002603,0.000230,-0.001282,28
1784729908566000,0.483517,5.932396,7.793095,-0.003125,0.000773,-0.000742,29
1784729908576000,0.493040,5.932271,7.788164,-0.001517,0.001811,-0.001311,30
1784729908586000,0.488163,5.937044,7.778622,-0.000468,0.000730,-0.001856,31
1784729908596000,0.478574,5.937135,7.778763,-0.000985,0.000749,-0.000247,32
1784729908606000,0.478685,5.941964,7.783518,0.000615,0.000201,0.000261,33
1784729908616000,0.488255,5.946634,7.778552,-0.000992,-0.000310,0.000293,34
1784729908626000,0.497567,5.917774,7.778618,-0.001543,-0.001370,-0.000224,35
1784729908636000,0.468921,5.937192,7.774116,-0.001005,-0.001901,0.000836,36
1784729908646000,0.478611,5.927612,7.788412,0.000074,-0.001379,0.001347,37
1784729908656000,0.483341,5.927534,7.783551,0.001136,-0.001397,0.000795,38
1784729908666000,0.492930,5.927443,7.783409,0.000069,-0.001383,0.000814,39
1784729908676000,0.478574,5.937135,7.778763,0.001669,-0.001404,0.000786,40
1784729908686000,0.469161,5.942088,7.788450,0.003288,-0.000357,0.001284,41
1784729908696000,0.512042,5.927228,7.778336,0.002738,-0.000890,0.000230,42
1784729908706000,0.497613,5.922569,7.778584,0.004328,-0.000392,-0.001402,43
1784729908716000,0.488292,5.937111,7.788200,0.004863,0.000129,-0.001948,44
1784729908726000,0.488403,5.941940,7.792955,0.004322,-0.000923,-0.001399,45
1784729908736000,0.459665,5.951768,7.788522,0.005408,0.000658,-0.001427,46
1784729908746000,0.473891,5.942009,7.783589,0.004874,0.000137,-0.000881,47
1784729908756000,0.474048,5.951632,7.788309,0.005400,-0.000929,-0.000351,48
1784729908766000,0.478647,5.951486,7.773870,0.004871,-0.001445,0.000729,49
1784729908776000,0.474140,5.961222,7.788240,0.002738,-0.000890,0.000230,50
1784729908786000,0.483747,5.956370,7.792922,0.000062,-0.001915,0.000817,51
1784729908796000,0.497695,5.951238,7.764008,-0.000997,-0.000314,-0.000240,52
1784729908806000,0.488431,5.951496,7.788096,-0.001537,-0.000839,-0.000228,53
1784729908816000,0.483507,5.951474,7.778588,-0.001004,-0.001373,0.000299,54
1784729908826000,0.488144,5.941806,7.773798,-0.000999,-0.001369,0.000833,55
1784729908836000,0.493262,5.941928,7.797673,0.000069,-0.001383,0.000814,56
1784729908846000,0.502426,5.917763,7.783336,0.001155,0.000726,0.000249,57
1784729908856000,0.492911,5.932204,7.778585,0.001139,0.000713,-0.001351,58
1784729908866000,0.507202,5.922479,7.778441,0.001674,0.001761,-0.002434,59
1784729908876000,0.483239,5.937022,7.769114,0.001141,0.002296,-0.002961,60
1784729908886000,0.497835,5.932226,7.788093,0.003287,0.002804,-0.002469,61
1784729908896000,0.473993,5.932520,7.798027,0.004882,0.002251,-0.002494,62
1784729908906000,0.464653,5.951824,7.802819,0.006488,0.002235,-0.001989,63
1784729908916000,0.469096,5.942055,7.783660,0.008644,0.002224,0.000106,64
1784729908926000,0.431075,5.956902,7.798492,0.009197,0.000651,0.003840,65
1784729908936000,0.478861,5.946826,7.793062,0.009202,0.000127,0.004910,66
1784729908946000,0.478750,5.941997,7.788308,0.008674,0.000138,0.005453,67
1784729908956000,0.493095,5.951384,7.778447,0.007062,0.000151,0.004415,68
1784729908966000,0.502592,5.941703,7.778374,0.003843,-0.000347,0.003408,69
1784729908976000,0.507340,5.936863,7.778337,0.000639,0.001800,0.000785,70
1784729908986000,0.521501,5.927070,7.768615,-0.000989,0.001800,-0.001854,71
1784729908996000,0.497789,5.927431,7.788127,-0.000472,0.001781,-0.003463,72
1784729909006000,0.473863,5.932453,7.788448,0.000073,0.001782,-0.002406,73
1784729909016000,0.469291,5.942155,7.798028,0.003807,0.000679,-0.001399,74
1784729909026000,0.468975,5.956305,7.764399,0.002205,-0.000356,-0.000297,75
1784729909036000,0.478804,5.961109,7.778590,0.000604,-0.000335,-0.000269,76
1784729909046000,0.479064,5.961244,7.797748,0.003283,-0.000361,0.000751,77
1784729909056000,0.478787,5.932475,7.797956,0.005422,-0.000912,0.001783,78
1784729909066000,0.394107,6.000923,7.870589,0.014003,0.002171,0.002145,79
1784729909076000,0.431584,5.942854,7.846489,0.018850,0.003197,0.005254,80
1784729909086000,0.450465,5.952061,7.817400,0.024190,0.001549,0.007303,81
1784729909096000,0.478547,5.927579,7.783622,0.025794,-0.000050,0.009417,82
1784729909106000,0.492735,5.927342,7.769041,0.026316,-0.001120,0.009414,83
1784729909116000,0.506905,5.931867,7.749636,0.024176,-0.001097,0.008919,84
1784729909126000,0.506876,5.955706,7.730306,0.019353,0.000531,0.005261,85
1784729909136000,0.545055,5.950482,7.720193,0.009178,0.002217,0.000097,86
1784729909146000,0.564196,5.926427,7.734451,-0.000997,0.003902,-0.005067,87
1784729909156000,0.540612,5.960251,7.739353,-0.009037,0.006087,-0.010805,88
1784729909166000,0.516678,5.950955,7.749355,-0.016007,0.006152,-0.013882,89
1784729909176000,0.502471,5.955953,7.759112,-0.020791,0.008337,-0.014343,90
1784729909186000,0.483561,5.970586,7.768871,-0.023481,0.007827,-0.015893,91
1784729909196000,0.464550,5.994709,7.764193,-0.021880,0.007807,-0.015921,92
1784729909206000,0.488504,5.965847,7.783203,-0.023483,0.006772,-0.014820,93
1784729909216000,0.459673,5.966085,7.778840,-0.023483,0.006245,-0.014283,94
1784729909226000,0.450492,5.961617,7.812541,-0.019200,0.004619,-0.011149,95
1784729909236000,0.426512,5.947526,7.822579,-0.013304,0.004036,-0.008049,96
1784729909246000,0.436082,5.952197,7.817613,-0.007954,0.001869,-0.004397,97
1784729909256000,0.431196,5.942652,7.817753,-0.001525,0.000225,-0.000234,98
1784729909266000,0.445338,5.937621,7.803207,0.005454,-0.001415,0.005520,99
1784729909276000,0.450067,5.937541,7.798347,0.010800,-0.002531,0.007565,100
1784729909286000,0.469069,5.932498,7.788519,0.011858,-0.005186,0.009696,101
1784729909296000,0.488014,5.941739,7.764219,0.013457,-0.006262,0.010741,102
1784729909306000,0.483257,5.932261,7.773938,0.012908,-0.006268,0.009150,103
1784729909316000,0.511912,5.927161,7.768757,0.011297,-0.005200,0.007038,104
1784729909326000,0.393664,5.981609,7.851570,0.013423,-0.004181,0.004861,105
1784729909336000,0.435926,5.909177,7.837082,0.015063,-0.002591,0.006956,106
1784729909346000,0.497567,5.917774,7.778618,0.013937,-0.006311,0.005397,107
1784729909356000,0.492708,5.917786,7.773900,0.013360,-0.010553,0.005966,108
1784729909366000,0.483423,5.956202,7.768975,0.013366,-0.010021,0.005963,109
1784729909376000,0.488328,5.960985,7.773659,0.011756,-0.008954,0.003851,110
1784729909386000,0.493058,5.960906,7.768798,0.011207,-0.008432,0.001724,111
1784729909396000,0.497944,5.970450,7.768658,0.008536,-0.006291,-0.000908,112
1784729909406000,0.493215,5.970530,7.773519,0.005846,-0.006273,-0.002995,113
1784729909416000,0.474157,5.989856,7.768875,0.002640,-0.005708,-0.004008,114
1784729909426000,0.478887,5.989778,7.764014,0.001034,-0.005164,-0.005049,115
1784729909436000,0.464384,5.970768,7.769156,0.001066,-0.005139,-0.001849,116
1784729909446000,0.493095,5.951384,7.778447,0.000530,-0.006715,-0.000230,117
1784729909456000,0.478453,5.951385,7.759502,0.002695,-0.004612,0.000253,118
1784729909466000,0.483220,5.941784,7.764290,0.005906,-0.005700,0.002336,119
1784729909477000,0.483496,5.970553,7.764082,0.009669,-0.005200,0.004400,120
1784729909487000,0.492948,5.922682,7.788233,0.010753,-0.005202,0.005981,121
1784729909497000,0.502406,5.955920,7.754323,0.011808,-0.006279,0.005969,122
1784729909507000,0.483534,5.961030,7.773730,0.013937,-0.006311,0.005397,123
1784729909517000,0.497879,5.970417,7.763869,0.012877,-0.005238,0.004877,124
1784729909527000,0.498036,5.980040,7.768589,0.013406,-0.004721,0.003797,125
1784729909537000,0.502674,5.970372,7.763798,0.012341,-0.003125,0.002206,126
1784729909547000,0.493297,5.999197,7.758943,0.010723,-0.003644,0.001171,127
1784729909557000,0.483681,5.989732,7.763943,0.009139,-0.003083,0.002263,128
1784729909567000,0.493150,5.970496,7.768729,0.007544,-0.002531,0.002288,129
1784729909577000,0.488318,5.980063,7.759152,0.005943,-0.002510,0.002316,130
1784729909587000,0.483543,5.975348,7.764047,0.004348,-0.001958,0.002342,131
1784729909597000,0.502646,5.960815,7.768656,0.002740,-0.002996,0.002910,132
1784729909607000,0.502785,5.975200,7.768552,0.000601,-0.001917,0.001341,133
1784729909617000,0.517011,5.965441,7.763619,0.001679,-0.002450,0.002925,134
1784729909627000,0.526526,5.950999,7.768371,0.001130,-0.001928,0.000798,135
1784729909637000,0.483561,5.970586,7.768871,0.003263,-0.003011,0.001834,136
1784729909647000,0.497787,5.960827,7.763938,0.005404,-0.001980,0.001256,137
1784729909657000,0.493085,5.970462,7.763940,0.005960,-0.001443,0.002843,138
1784729909667000,0.507338,5.970259,7.754148,0.006471,-0.002521,0.001774,139
1784729909677000,0.483570,5.984903,7.759189,0.006483,-0.001458,0.001767,140
1784729909687000,0.502701,5.979928,7.758939,0.003814,-0.001951,0.002351,141
1784729909697000,0.478887,5.989778,7.764014,0.003287,-0.001412,0.002357,142
1784729909707000,0.488272,5.975268,7.759187,0.002229,-0.001917,0.003980,143
1784729909717000,0.483524,5.980109,7.759223,0.003297,-0.001404,0.003424,144
1784729909727000,0.497907,5.979973,7.759010,0.002769,-0.001393,0.003967,145
1784729909737000,0.493242,5.980085,7.768660,0.000634,-0.001365,0.004005,146
1784729909747000,0.497953,5.984767,7.758976,-0.000438,-0.000828,0.002954,147
1784729909757000,0.502868,5.970472,7.778166,0.001153,-0.000857,0.001858,148
1784729909767000,0.512281,5.965519,7.768480,-0.001527,-0.001358,0.001376,149
1784729909777000,0.512189,5.955930,7.768549,-0.000453,-0.000313,0.000817,150
1784729909787000,0.502646,5.960815,7.768656,-0.000464,-0.000848,0.000287,151
1784729909797000,0.497750,5.970350,7.754290,-0.000464,-0.000321,-0.000250,152
1784729909807000,0.483718,5.980210,7.773591,0.000053,-0.000868,-0.001323,153
1784729909817000,0.497926,5.975212,7.763834,0.000592,-0.000871,-0.000799,154
1784729909827000,0.502674,5.970372,7.763798,-0.001009,-0.000850,-0.000771,155
1784729909837000,0.497879,5.970417,7.763869,0.000064,-0.000860,-0.000256,156
1784729909847000,0.507487,5.965565,7.768551,0.001137,-0.000342,-0.000278,157
1784729909857000,0.502766,5.979961,7.763729,0.001125,-0.001405,-0.000272,158
1784729909867000,0.493066,5.975223,7.759116,0.002198,-0.001415,0.000243,159
1784729909877000,0.483700,5.984971,7.768767,0.001670,-0.000876,0.000249,160
1784729909887000,0.493334,5.989675,7.768590,0.002754,-0.000878,0.001830,161
1784729909897000,0.493150,5.970496,7.768729,0.001147,-0.000861,0.001325,162
1784729909907000,0.502747,5.984722,7.758904,0.000608,-0.000858,0.000801,163
1784729909917000,0.507376,5.960737,7.763796,-0.000974,0.000758,0.000820,164
1784729909927000,0.521870,5.965429,7.768338,-0.001514,0.000233,0.000833,165
1784729909937000,0.502609,5.970338,7.759008,-0.002070,-0.000304,-0.000755,166
1784729909947000,0.512244,5.975042,7.758832,-0.000446,0.000746,0.000277,167
1784729909957000,0.488337,5.975302,7.763976,-0.000452,0.000742,-0.000256,168
1784729909967000,0.488272,5.975268,7.759187,0.000094,0.001271,0.000264,169
1784729909977000,0.512105,5.960658,7.758935,0.000633,0.001796,0.000252,170
1784729909987000,0.502609,5.970338,7.759008,-0.001003,-0.000318,-0.000774,171
1784729909997000,0.502776,5.960883,7.778235,0.001683,0.000715,-0.000294,172
1784729910007000,0.512244,5.975042,7.758832,0.001143,0.000190,-0.000282,173
1784729910017000,0.497944,5.970450,7.768658,0.002211,0.000176,-0.000300,174
1784729910027000,0.488402,5.975336,7.768765,0.001682,0.000187,0.000242,175
1784729910037000,0.497861,5.975178,7.759045,0.001689,0.000719,0.000239,176
1784729910047000,0.497907,5.979973,7.759010,0.002211,0.000176,-0.000300,177
1784729910057000,0.493270,5.989642,7.763801,0.001149,0.000194,0.000252,178
1784729910067000,0.498147,5.984869,7.773344,0.000609,-0.000331,0.000265,179
1784729910077000,0.493307,5.980119,7.773449,0.000616,0.000728,-0.000275,180
1784729910087000,0.478905,5.985016,7.768838,-0.000986,0.000222,0.000290,181
1784729910097000,0.488762,5.999377,7.778171,-0.001503,0.000769,0.001363,182
1784729910107000,0.497990,5.975245,7.768623,-0.001513,0.000760,0.000296,183
1784729910117000,0.493177,5.980052,7.763871,-0.002053,0.000236,0.000309,184
1784729910127000,0.507422,5.965531,7.763762,-0.002041,0.001299,0.000302,185
1784729910137000,0.502609,5.970338,7.759008,-0.002053,0.000763,-0.000228,186
1784729910147000,0.497769,5.965588,7.759114,-0.002059,0.000231,-0.000225,187
1784729910157000,0.498009,5.970484,7.773448,-0.001519,0.000756,-0.000237,188
1784729910167000,0.502849,5.975234,7.773342,-0.000990,0.001273,-0.001317,189
1784729910177000,0.488356,5.970541,7.768800,-0.000452,0.000742,-0.000256,190
1784729910187000,0.483710,5.965892,7.783274,0.000620,0.000205,0.000795,191
1784729910197000,0.502868,5.970472,7.778166,0.001687,-0.000336,0.001312,192
1784729910207000,0.507403,5.970293,7.758937,0.002761,0.000182,0.001290,193
1784729910217000,0.497944,5.970450,7.768658,0.004345,-0.000379,0.000198,194
1784729910227000,0.493020,5.970428,7.759151,0.003812,0.000683,-0.000865,195
1784729910237000,0.483543,5.975348,7.764047,0.002750,0.000173,0.000223,196
1784729910247000,0.478730,5.980154,7.759294,0.001671,-0.000349,-0.000288,197
1784729910257000,0.497740,5.989428,7.739784,0.000069,-0.000855,0.000277,198
1784729910267000,0.507533,5.970360,7.768516,-0.001515,-0.000295,0.001369,199
1784729910277000,0.497842,5.979939,7.754221,-0.001538,-0.001366,0.000309,200
1784729910287000,0.502674,5.970372,7.763798,-0.000987,-0.000306,0.000826,201
1784729910297000,0.517038,5.974997,7.758760,-0.000464,-0.000321,-0.000250,202
1784729910307000,0.512197,5.970247,7.758866,-0.003144,-0.000822,-0.000733,203
1784729910317000,0.502720,5.975166,7.763763,-0.004216,-0.000285,-0.001784,204
1784729910327000,0.507403,5.970293,7.758937,-0.005797,0.001858,-0.002302,205
1784729910337000,0.517094,5.960713,7.773233,-0.007931,0.002414,-0.002801,206
1784729910347000,0.493058,5.960906,7.768798,-0.006875,0.002391,-0.003886,207
1784729910357000,0.497741,5.956032,7.763973,-0.006864,0.002400,-0.002819,208
1784729910367000,0.493261,5.975324,7.773484,-0.005791,0.002390,-0.002305,209
1784729910377000,0.497944,5.970450,7.768658,-0.004190,0.002369,-0.002333,210
1784729910387000,0.497898,5.965655,7.768693,-0.002050,0.002346,-0.001838,211
1784729910397000,0.498055,5.975279,7.773413,-0.003639,0.003430,-0.001816,212
1784729910407000,0.502692,5.965610,7.768622,-0.003117,0.002887,-0.002356,213
1784729910417000,0.488393,5.961019,7.778448,-0.004739,0.002891,-0.004461,214
1784729910427000,0.488439,5.965813,7.778413,-0.003145,0.002339,-0.004486,215
1784729910437000,0.493123,5.960940,7.773588,-0.005807,0.002905,-0.004442,216
1784729910447000,0.488402,5.975336,7.768765,-0.006886,0.001856,-0.004416,217
1784729910457000,0.488420,5.970575,7.773590,-0.007978,-0.000257,-0.004384,218
1784729910467000,0.488318,5.980063,7.759152,-0.005844,-0.000812,-0.003886,219
1784729910477000,0.478758,5.956314,7.778625,-0.005311,-0.001347,-0.003358,220
1784729910487000,0.469373,5.970824,7.783453,-0.001555,-0.002434,-0.000218,221
1784729910498000,0.478786,5.965870,7.773766,0.002730,-0.002477,0.001306,222
1784729910508000,0.483423,5.956202,7.768975,0.004863,-0.004087,0.002878,223
1784729910518000,0.492974,5.965633,7.759185,0.005953,-0.003029,0.003920,224
1784729910528000,0.502692,5.965610,7.768622,0.005426,-0.001963,0.003389,225
1784729910538000,0.497990,5.975245,7.768623,0.003808,-0.002482,0.002354,226
1784729910548000,0.502655,5.975132,7.758974,0.000613,-0.001382,0.001871,227
1784729910558000,0.493261,5.975324,7.773484,-0.000464,-0.000848,0.000287,228
1784729910568000,0.493131,5.975257,7.763905,-0.002599,-0.000821,0.000325,229
1784729910578000,0.493242,5.980085,7.768660,-0.003673,-0.001339,0.000347,230
1784729910588000,0.493150,5.970496,7.768729,-0.005273,-0.000790,-0.000161,231
1784729910598000,0.488328,5.960985,7.773659,-0.004189,-0.000264,0.000883,232
1784729910608000,0.498009,5.970484,7.773448,-0.004194,-0.000268,0.000350,233
1784729910618000,0.474037,5.970711,7.773803,-0.005290,-0.001330,-0.001225,234
1784729910628000,0.507395,5.955975,7.768620,-0.004733,-0.000266,-0.000174,235
1784729910638000,0.488255,5.946634,7.778552,-0.004205,-0.000804,-0.000180,236
1784729910648000,0.497917,5.960895,7.773517,-0.003672,-0.000811,-0.000190,237
1784729910658000,0.488420,5.970575,7.773590,-0.002593,-0.000289,0.000321,238
1784729910668000,0.502711,5.960849,7.773446,-0.000981,0.000226,0.000823,239
1784729910678000,0.498074,5.970518,7.778237,0.000104,0.001279,0.001331,240
1784729910688000,0.478721,5.965837,7.768977,-0.000424,0.001291,0.001874,241
1784729910698000,0.498055,5.975279,7.773413,-0.002046,0.001295,-0.000231,242
1784729910708000,0.488217,5.956156,7.768904,-0.002586,0.000770,-0.000219,243
1784729910718000,0.507709,5.975222,7.778060,-0.003659,0.000780,-0.000733,244
1784729910728000,0.483599,5.961064,7.778519,-0.003131,0.000769,-0.001276,245
1784729910738000,0.488282,5.956190,7.773694,-0.003131,0.000769,-0.001276,246
1784729910748000,0.478832,5.970665,7.773732,-0.002593,-0.000289,0.000321,247
1784729910758000,0.478777,5.951553,7.783449,-0.001516,-0.000822,0.001906,248
1784729910768000,0.493095,5.951384,7.778447,-0.000963,0.001293,0.001350,249
1784729910778000,0.483590,5.946746,7.788202,0.001171,0.000738,0.001849,250
1784729910788000,0.493095,5.951384,7.778447,0.002767,0.000713,0.001287,251
1784729910798000,0.493261,5.975324,7.773484,0.004361,-0.000367,0.001798,252
1784729910808000,0.493095,5.951384,7.778447,0.004878,-0.000914,0.000726,253
1784729910818000,0.493095,5.951384,7.778447,0.004878,-0.000386,0.000189,254
1784729910828000,0.493363,5.965835,7.787921,0.004349,-0.000903,0.001268,255
1784729910838000,0.488439,5.965813,7.778413,0.005406,-0.000925,0.000183,0
1784729910848000,0.493261,5.975324,7.773484,0.007534,-0.002012,0.000685,1
1784729910858000,0.488467,5.975369,7.773555,0.007538,-0.002535,0.001755,2
1784729910868000,0.497917,5.960895,7.773517,0.008061,-0.002550,0.000678,3
1784729910878000,0.497926,5.975212,7.763834,0.006476,-0.002517,0.002307,4
1784729910888000,0.493066,5.975223,7.759116,0.004888,-0.000905,0.001792,5
1784729910898000,0.502739,5.970405,7.768587,0.004372,-0.000358,0.002865,6
1784729910908000,0.502757,5.965644,7.773411,0.002220,-0.000871,0.001840,7
1784729910918000,0.502757,5.965644,7.773411,0.001704,0.000204,0.002376,8
1784729910928000,0.512290,5.979837,7.758797,-0.000446,0.000746,0.000277,9
1784729910938000,0.502609,5.970338,7.759008,-0.002057,0.001286,-0.001298,10
1784729910948000,0.493131,5.975257,7.763905,-0.002061,0.002337,-0.002905,11
1784729910958000,0.493150,5.970496,7.768729,-0.002056,0.001814,-0.001835,12
1784729910968000,0.483626,5.970620,7.773661,-0.002054,0.003396,-0.003444,13
1784729910978000,0.497852,5.960861,7.768727,-0.002600,0.002340,-0.003428,14
1784729910988000,0.492993,5.960873,7.764009,-0.003151,0.001807,-0.004483,15
1784729910998000,0.483515,5.965791,7.768906,-0.003129,0.001824,-0.002349,16
1784729911008000,0.483459,5.980075,7.754434,-0.004748,0.000777,-0.002848,17
1784729911018000,0.478859,5.980221,7.768873,-0.003669,0.001299,-0.002336,18
1784729911028000,0.488226,5.970474,7.759222,-0.005804,0.000799,-0.001762,19
1784729911038000,0.493131,5.975257,7.763905,-0.004199,-0.000272,-0.000184,20
1784729911048000,0.493058,5.960906,7.768798,-0.003138,-0.000818,-0.000199,21
1784729911058000,0.483626,5.970620,7.773661,-0.002627,-0.001369,-0.001806,22
1784729911068000,0.497806,5.956066,7.768762,-0.003155,-0.001358,-0.001263,23
1784729911078000,0.483599,5.961064,7.778519,-0.002093,-0.001376,-0.001815,24
1784729911088000,0.492901,5.951283,7.764079,-0.001572,-0.002446,-0.001818,25
1784729911098000,0.498139,5.970551,7.783026,-0.000488,-0.002448,-0.000237,26
1784729911108000,0.488356,5.970541,7.768800,0.000578,-0.003516,0.000817,27
1784729911118000,0.493123,5.960940,7.773588,0.002179,-0.003537,0.000789,28
1784729911128000,0.488402,5.975336,7.768765,0.002712,-0.003544,0.000780,29
1784729911138000,0.497825,5.951305,7.773586,0.003280,-0.002471,0.002897,30
1784729911148000,0.502646,5.960815,7.768656,0.003797,-0.003018,0.001824,31
1784729911158000,0.507376,5.960737,7.763796,0.003813,-0.002478,0.002888,32
1784729911168000,0.483691,5.970654,7.778450,0.004353,-0.001953,0.002875,33
1784729911178000,0.483664,5.961098,7.783309,0.004886,-0.002488,0.003402,34
1784729911188000,0.497944,5.970450,7.768658,0.004342,-0.002489,0.002345,35
1784729911198000,0.502590,5.975099,7.754184,0.003830,-0.001938,0.003951,36
1784729911208000,0.493196,5.975290,7.768694,0.002752,-0.002460,0.003440,37
1784729911218000,0.497999,5.989563,7.758941,0.001680,-0.001923,0.002389,38
1784729911228000,0.502785,5.975200,7.768552,0.000619,-0.000850,0.001868,39
1784729911238000,0.502646,5.960815,7.768656,-0.000448,-0.000836,0.001887,40
1784729911248000,0.493104,5.965701,7.768764,0.000091,-0.000311,0.001874,41
1784729911258000,0.492993,5.960873,7.764009,0.000081,-0.000320,0.000807,42
1784729911268000,0.512346,5.965553,7.773269,-0.000441,0.000223,0.001347,43
1784729911278000,0.497990,5.975245,7.768623,-0.000447,0.000219,0.000814,44
1784729911288000,0.488245,5.965713,7.764045,-0.000441,0.000223,0.001347,45
1784729911298000,0.493215,5.970530,7.773519,-0.000439,0.001806,-0.000263,46
1784729911308000,0.493280,5.970563,7.778308,0.000093,0.000744,0.000801,47
1784729911318000,0.507773,5.975255,7.782849,-0.000434,0.001810,0.000271,48
1784729911328000,0.493280,5.970563,7.778308,-0.000445,0.001274,-0.000260,49
1784729911338000,0.493169,5.965734,7.773553,-0.002058,0.000759,-0.000761,50
1784729911348000,0.488577,5.980198,7.778309,-0.002046,0.001295,-0.000231,51
1784729911358000,0.488374,5.965780,7.773624,-0.002057,0.001286,-0.001298,52
1784729911368000,0.483792,5.994560,7.768698,-0.003114,0.000781,0.000324,53
1784729911378000,0.478767,5.970632,7.768942,-0.003643,0.000792,0.000867,54
1784729911388000,0.483607,5.975381,7.768836,-0.005255,0.000277,0.000365,55
1784729911398000,0.488356,5.970541,7.768800,-0.004194,-0.000268,0.000350,56
1784729911408000,0.502628,5.965577,7.763833,-0.003654,0.000256,0.000337,57
1784729911418000,0.492966,5.951316,7.768868,-0.005254,0.000805,-0.000171,58
1784729911428000,0.498204,5.970585,7.787816,-0.004727,0.000266,-0.000177,59
1784729911438000,0.493187,5.960973,7.778377,-0.003131,0.000769,-0.001276,60
1784729911448000,0.488615,5.970675,7.787958,-0.001530,0.000220,-0.000768,61
1784729911458000,0.493141,5.956178,7.778412,-0.000458,0.000211,-0.000253,62
1784729911468000,0.493076,5.956145,7.773623,0.000081,0.000208,0.000271,63
1784729911478000,0.492919,5.946521,7.768902,-0.001003,-0.000318,-0.000774,64
1784729911488000,0.488393,5.961019,7.778448,-0.000474,-0.000329,-0.001317,65
1784729911498000,0.492993,5.960873,7.764009,-0.000468,0.000202,-0.001320,66
1784729911508000,0.507403,5.970293,7.758937,-0.000468,0.000730,-0.001856,67
1784729911518000,0.493280,5.970563,7.778308,0.000072,0.001255,-0.001869,68
1784729911529000,0.502563,5.965543,7.759043,0.000072,0.001255,-0.001869,69
1784729911539000,0.502739,5.970405,7.768587,-0.001001,0.001264,-0.002384,70
1784729911549000,0.488263,5.960951,7.768869,-0.002062,0.001810,-0.002368,71
1784729911559000,0.497871,5.956100,7.773551,-0.001545,0.001263,-0.003441,72
1784729911569000,0.493196,5.975290,7.768694,-0.001001,0.001264,-0.002384,73
1784729911579000,0.483672,5.975415,7.773626,-0.000468,0.000730,-0.001856,74
1784729911589000,0.497917,5.960895,7.773517,0.000610,0.000724,-0.000809,75
1784729911599000,0.483710,5.965892,7.783274,0.002224,0.001767,-0.000844,76
1784729911609000,0.483653,5.980176,7.768802,0.002222,0.000712,0.000230,77
1784729911619000,0.478813,5.975426,7.768908,0.002778,0.001249,0.001817,78
1784729911629000,0.507338,5.970259,7.754148,0.003283,0.000166,0.000214,79
1784729911639000,0.478683,5.975359,7.759329,0.001689,0.000719,0.000239,80
1784729911649000,0.473991,5.965916,7.773837,0.000627,0.001264,0.000255,81
1784729911659000,0.483561,5.970586,7.768871,0.000620,0.000205,0.000795,82
1784729911669000,0.488310,5.965746,7.768835,-0.001520,0.000229,0.000299,83
1784729911679000,0.493131,5.975257,7.763905,-0.002053,0.000236,0.000309,84
1784729911689000,0.478832,5.970665,7.773732,-0.004177,0.000272,0.001413,85
1784729911699000,0.502692,5.965610,7.768622,-0.004187,0.000791,-0.000190,86
1784729911709000,0.493169,5.965734,7.773553,-0.004722,0.000270,0.000356,87
1784729911719000,0.512254,5.955964,7.773338,-0.005261,-0.000254,0.000369,88
1784729911729000,0.493252,5.961007,7.783166,-0.002593,-0.000289,0.000321,89
1784729911739000,0.493123,5.960940,7.773588,-0.002065,-0.000828,0.000315,90
1784729911749000,0.493123,5.960940,7.773588,-0.001532,-0.000835,0.000306,91
1784729911759000,0.507524,5.956042,7.778199,-0.000458,-0.000317,0.000283,92
1784729911769000,0.507524,5.956042,7.778199,0.002217,0.000708,-0.000304,93
1784729911779000,0.502646,5.960815,7.768656,0.003296,0.001230,0.000208,94
1784729911789000,0.488217,5.956156,7.768904,0.002750,0.000701,-0.000313,95
1784729911799000,0.507505,5.960804,7.773375,0.003284,0.000694,-0.000323,96
1784729911809000,0.492966,5.951316,7.768868,0.002751,0.001228,-0.000850,97
1784729911819000,0.492993,5.960873,7.764009,0.002750,0.000701,-0.000313,98
1784729911829000,0.478897,5.970699,7.778521,0.001695,0.001778,-0.000301,99
1784729911839000,0.488291,5.970508,7.764011,0.001695,0.001778,-0.000301,100
1784729911849000,0.493215,5.970530,7.773519,0.001694,0.000723,0.000773,101
1784729911859000,0.474084,5.975505,7.773768,0.002233,0.000720,0.001296,102
1784729911869000,0.488467,5.975369,7.773555,0.001166,0.000734,0.001315,103
1784729911879000,0.483543,5.975348,7.764047,0.000620,0.000205,0.000795,104
1784729911889000,0.502646,5.960815,7.768656,-0.000986,0.000222,0.000290,105
1784729911899000,0.488337,5.975302,7.763976,-0.002042,0.000771,0.000839,106
1784729911909000,0.493261,5.975324,7.773484,-0.000992,-0.000310,0.000293,107
1784729911919000,0.478943,5.975493,7.778486,-0.002054,-0.000292,0.000845,108
1784729911929000,0.497917,5.960895,7.773517,-0.000987,-0.000306,0.000826,109
1784729911939000,0.493085,5.970462,7.763940,-0.002065,-0.000828,0.000315,110
1784729911949000,0.502757,5.965644,7.773411,-0.001525,0.000225,-0.000234,111
1784729911959000,0.502785,5.975200,7.768552,-0.001542,-0.000315,-0.001298,112
1784729911969000,0.502822,5.965677,7.778201,-0.002059,0.000231,-0.000225,113
1784729911979000,0.483867,5.975515,7.787994,-0.002592,0.000238,-0.000215,114
1784729911989000,0.483672,5.975415,7.773626,-0.002604,-0.000297,-0.000745,115
1784729911999000,0.474148,5.975539,7.778557,-0.000991,0.000218,-0.000244,116
1784729912009000,0.483561,5.970586,7.768871,-0.000986,0.000222,0.000290,117
1784729912019000,0.483691,5.970654,7.778450,-0.001514,0.000233,0.000833,118
1784729912029000,0.493123,5.960940,7.773588,-0.003654,0.000256,0.000337,119
1784729912039000,0.492928,5.960839,7.759220,-0.002054,-0.000292,0.000845,120
1784729912049000,0.497722,5.960793,7.759149,-0.003137,-0.000290,-0.000736,121
1784729912059000,0.497982,5.960928,7.778306,-0.002598,0.000234,-0.000749,122
1784729912069000,0.483423,5.956202,7.768975,-0.002592,0.000766,-0.000752,123
1784729912079000,0.492873,5.941727,7.768937,-0.002063,0.000755,-0.001295,124
1784729912089000,0.497936,5.956133,7.778341,0.000599,0.000189,-0.001339,125
1784729912099000,0.488301,5.951429,7.778518,0.000598,-0.000339,-0.000802,126
1784729912109000,0.478712,5.951519,7.778659,0.002217,0.001235,-0.000840,127
1784729912119000,0.493261,5.975324,7.773484,0.003802,0.000674,-0.001932,128
1784729912129000,0.478934,5.961176,7.788169,0.003262,0.000150,-0.001919,129
1784729912139000,0.493409,5.970630,7.787887,0.002746,0.001224,-0.001383,130
1784729912149000,0.483626,5.970620,7.773661,0.002201,0.000695,-0.001904,131
1784729912159000,0.474010,5.961154,7.778661,0.002206,0.000699,-0.001370,132
1784729912169000,0.474084,5.975505,7.773768,0.001684,0.001242,-0.000831,133
1784729912179000,0.493085,5.970462,7.763940,0.000604,0.000193,-0.000805,134
1784729912189000,0.493280,5.970563,7.778308,-0.002059,0.000231,-0.000225,135
1784729912199000,0.483626,5.970620,7.773661,-0.002609,-0.000302,-0.001279,136
1784729912209000,0.502628,5.965577,7.763833,-0.003137,-0.000290,-0.000736,137
1784729912219000,0.497760,5.951271,7.768797,-0.002593,-0.000289,0.000321,138
1784729912229000,0.483607,5.975381,7.768836,-0.000991,0.000745,-0.000780,139
1784729912239000,0.483599,5.961064,7.778519,-0.000452,0.000215,0.000280,140
1784729912249000,0.478740,5.961076,7.773801,0.000099,0.001275,0.000798,141
1784729912259000,0.478934,5.961176,7.788169,0.000620,0.000205,0.000795,142
1784729912269000,0.483469,5.960997,7.768940,0.000092,0.000216,0.001338,143
1784729912279000,0.493187,5.960973,7.778377,0.000097,-0.000307,0.002408,144
1784729912289000,0.483469,5.960997,7.768940,0.000625,-0.000318,0.001865,145
1784729912299000,0.493261,5.975324,7.773484,-0.000465,-0.001376,0.000823,146
1784729912309000,0.483534,5.961030,7.773730,-0.000437,-0.000300,0.002417,147
1784729912319000,0.497769,5.965588,7.759114,-0.000988,-0.001361,0.001900,148
1784729912329000,0.493058,5.960906,7.768798,-0.000460,-0.001372,0.001357,149
1784729912339000,0.493076,5.956145,7.773623,-0.001010,-0.001377,-0.000234,150
1784729912349000,0.492966,5.951316,7.768868,-0.000998,-0.000842,0.000296,151
1784729912359000,0.488328,5.960985,7.773659,-0.000476,-0.001384,-0.000243,152
1784729912369000,0.493123,5.960940,7.773588,0.000585,-0.001930,-0.000259,153
1784729912379000,0.493187,5.960973,7.778377,0.001671,-0.000349,-0.000288,154
1784729912389000,0.493326,5.975358,7.778273,0.002721,-0.001430,-0.000834,155
1784729912399000,0.483534,5.961030,7.773730,0.002192,-0.001946,0.000246,156
1784729912409000,0.483507,5.951474,7.778588,0.002192,-0.001946,0.000246,157
1784729912419000,0.483653,5.980176,7.768802,0.003798,-0.001963,0.000751,158
1784729912429000,0.483645,5.965858,7.778484,0.004337,-0.001966,0.001275,159
1784729912439000,0.488531,5.975403,7.778344,0.003275,-0.001948,0.001827,160
1784729912449000,0.502674,5.970372,7.763798,0.003270,-0.001952,0.001294,161
1784729912459000,0.502896,5.980029,7.773307,0.002748,-0.001409,0.001833,162
1784729912469000,0.488485,5.970608,7.778379,0.001663,-0.001935,0.000789,163
1784729912479000,0.493242,5.980085,7.768660,0.001124,-0.002460,0.000801,164
1784729912489000,0.493020,5.970428,7.759151,0.000069,-0.001383,0.000814,165
1784729912499000,0.483543,5.975348,7.764047,-0.000465,-0.001376,0.000823,166
1784729912509000,0.497990,5.975245,7.768623,-0.000993,-0.000837,0.000830,167
1784729912519000,0.478786,5.965870,7.773766,-0.001538,-0.001366,0.000309,168
1784729912529000,0.483561,5.970586,7.768871,-0.002082,-0.001368,-0.000748,169
1784729912539000,0.497917,5.960895,7.773517,-0.001532,-0.000835,0.000306,170
1784729912550000,0.512235,5.960725,7.768514,-0.001515,-0.000295,0.001369,171
1784729912560000,0.502711,5.960849,7.773446,-0.000470,-0.000853,-0.000247,172
1784729912570000,0.488171,5.951362,7.768939,0.000075,-0.000324,0.000274,173
1784729912580000,0.498055,5.975279,7.773413,0.000610,0.000197,-0.000272,174
1784729912590000,0.483626,5.970620,7.773661,0.000082,0.000735,-0.000266,175
1784729912600000,0.493187,5.960973,7.778377,-0.000996,0.000741,-0.001314,176
1784729912610000,0.478637,5.970564,7.759364,-0.001530,0.000220,-0.000768,177
1784729912620000,0.497879,5.970417,7.763869,-0.002059,0.000231,-0.000225,178
1784729912630000,0.483737,5.975448,7.778415,-0.002058,0.000759,-0.000761,179
1784729912640000,0.493150,5.970496,7.768729,-0.001530,0.000220,-0.000768,180
1784729912650000,0.493039,5.965667,7.763975,-0.002047,0.000767,0.000305,181
1784729912660000,0.493012,5.956111,7.768833,-0.001531,-0.000307,-0.000231,182
1784729912670000,0.512235,5.960725,7.768514,0.000076,0.000204,-0.000263,183
1784729912680000,0.502692,5.965610,7.768622,-0.000470,-0.000853,-0.000247,184
1784729912690000,0.497936,5.956133,7.778341,0.000609,-0.000331,0.000265,185
1784729912700000,0.488485,5.970608,7.778379,0.001689,0.000719,0.000239,186
1784729912710000,0.478804,5.961109,7.778590,0.001143,0.000190,-0.000282,187
1784729912720000,0.493150,5.970496,7.768729,0.002751,0.001228,-0.000850,188
1784729912730000,0.478813,5.975426,7.768908,0.001138,0.000186,-0.000815,189
1784729912740000,0.497898,5.965655,7.768693,0.001138,0.000186,-0.000815,190
1784729912750000,0.483561,5.970586,7.768871,0.000610,0.000197,-0.000272,191
1784729912760000,0.493215,5.970530,7.773519,-0.000997,0.000213,-0.000777,192
1784729912770000,0.483607,5.975381,7.768836,-0.001508,0.000764,0.000829,193
1784729912780000,0.478702,5.970598,7.764153,-0.003126,0.000245,-0.000206,194
1784729912790000,0.483664,5.961098,7.783309,-0.003126,0.000245,-0.000206,195
1784729912800000,0.502609,5.970338,7.759008,-0.004198,0.000783,-0.001257,196
1784729912810000,0.488263,5.960951,7.768869,-0.003121,0.000249,0.000328,197
1784729912820000,0.498093,5.965756,7.783061,-0.002581,0.000774,0.000315,198
1784729912830000,0.483599,5.961064,7.778519,-0.000452,0.000742,-0.000256,199
1784729912840000,0.493169,5.965734,7.773553,-0.000979,0.001281,-0.000250,200
1784729912850000,0.493058,5.960906,7.768798,-0.000452,0.000215,0.000280,201
1784729912860000,0.493344,5.970597,7.783097,0.000076,0.000204,-0.000263,202
1784729912870000,0.493150,5.970496,7.768729,0.000082,0.000735,-0.000266,203
1784729912880000,0.497944,5.970450,7.768658,-0.000458,-0.000317,0.000283,204
1784729912890000,0.493012,5.956111,7.768833,0.000621,0.000733,0.000258,205
1784729912900000,0.488217,5.956156,7.768904,0.000087,0.000212,0.000804,206
1784729912910000,0.497815,5.970383,7.759079,-0.000974,0.001285,0.000283,207
1784729912920000,0.483534,5.961030,7.773730,0.000088,0.001267,-0.000269,208
1784729912930000,0.483339,5.960929,7.759362,0.000616,0.000728,-0.000275,209
1784729912940000,0.497907,5.979973,7.759010,0.002222,0.000712,0.000230,210
1784729912950000,0.478786,5.965870,7.773766,0.001670,-0.000876,0.000249,211
1784729912960000,0.493280,5.970563,7.778308,0.001682,0.000187,0.000242,212
1784729912970000,0.493141,5.956178,7.778412,0.002205,0.000172,-0.000834,213
1784729912980000,0.493261,5.975324,7.773484,0.001665,-0.000880,-0.000284,214
1784729912990000,0.478832,5.970665,7.773732,0.003261,-0.000378,-0.001383,215
1784729913000000,0.483599,5.961064,7.778519,0.002733,-0.000367,-0.000840,216
1784729913010000,0.478859,5.980221,7.768873,0.001676,-0.000345,0.000246,217
1784729913020000,0.478878,5.975460,7.773697,0.001659,-0.000884,-0.000818,218
1784729913030000,0.512179,5.975008,7.754042,0.000058,-0.000864,-0.000789,219
1784729913040000,0.497990,5.975245,7.768623,0.000042,-0.000876,-0.002390,220
1784729913050000,0.502803,5.970439,7.773376,-0.001542,-0.000315,-0.001298,221
1784729913060000,0.488596,5.975437,7.783134,-0.002076,-0.000836,-0.000752,222
1784729913070000,0.493215,5.970530,7.773519,-0.002075,-0.000308,-0.001288,223
1784729913080000,0.493196,5.975290,7.768694,-0.002071,-0.000832,-0.000218,224
1784729913090000,0.502563,5.965543,7.759043,-0.001536,-0.000311,-0.000764,225
1784729913100000,0.521880,5.946351,7.782845,-0.001014,-0.000854,-0.001304,226
1784729913110000,0.488402,5.975336,7.768765,0.000065,0.000195,-0.001329,227
1784729913120000,0.488485,5.970608,7.778379,0.000065,0.000195,-0.001329,228
1784729913130000,0.488393,5.961019,7.778448,0.001678,0.000710,-0.000828,229
1784729913140000,0.497815,5.970383,7.759079,0.001144,0.000717,-0.000818,230
1784729913150000,0.474148,5.975539,7.778557,0.001689,0.001246,-0.000297,231
1784729913160000,0.493261,5.975324,7.773484,0.000615,0.000201,0.000261,232
1784729913170000,0.478748,5.975393,7.764118,0.002221,0.000184,0.000766,233
1784729913180000,0.497926,5.975212,7.763834,0.001149,0.000194,0.000252,234
1784729913190000,0.483607,5.975381,7.768836,0.000070,-0.000328,-0.000259,235
1784729913200000,0.483450,5.965758,7.764116,-0.000991,0.000218,-0.000244,236
1784729913210000,0.493150,5.970496,7.768729,-0.002070,-0.000304,-0.000755,237
1784729913220000,0.483718,5.980210,7.773591,-0.001537,-0.000839,-0.000228,238
1784729913230000,0.483534,5.961030,7.773730,-0.000991,0.000218,-0.000244,239
1784729913240000,0.483432,5.970519,7.759293,-0.001536,-0.000311,-0.000764,240
1784729913250000,0.488245,5.965713,7.764045,-0.001531,-0.000307,-0.000231,241
1784729913260000,0.478740,5.961076,7.773801,-0.001525,0.000225,-0.000234,242
1784729913270000,0.483534,5.961030,7.773730,-0.001002,0.000209,-0.001310,243
1784729913280000,0.488347,5.956223,7.778483,-0.001530,0.000220,-0.000768,244
1784729913290000,0.488485,5.970608,7.778379,-0.000997,0.000213,-0.000777,245
1784729913300000,0.478897,5.970699,7.778521,0.000081,0.000208,0.000271,246
1784729913310000,0.469132,5.965928,7.769119,0.000631,0.000213,0.001861,247
1784729913320000,0.488291,5.970508,7.764011,0.000603,-0.000862,0.000268,248
1784729913330000,0.507570,5.960837,7.778164,0.000602,-0.001390,0.000804,249
1784729913340000,0.488420,5.970575,7.773590,0.001658,-0.001939,0.000255,250
1784729913350000,0.478878,5.975460,7.773697,0.001154,0.000198,0.000785,251
1784729913360000,0.483626,5.970620,7.773661,0.000608,-0.000858,0.000801,252
1784729913370000,0.483339,5.960929,7.759362,0.001148,-0.000333,0.000788,253
1784729913380000,0.502785,5.975200,7.768552,0.000609,-0.000331,0.000265,254
1784729913390000,0.478813,5.975426,7.768908,0.000076,0.000204,-0.000263,255
1784729913400000,0.483607,5.975381,7.768836,-0.001525,0.000225,-0.000234,0
1784729913410000,0.488420,5.970575,7.773590,0.000611,0.001252,-0.001345,1
1784729913420000,0.488439,5.965813,7.778413,-0.001530,0.000220,-0.000768,2
1784729913430000,0.478897,5.970699,7.778521,-0.000991,0.000218,-0.000244,3
1784729913440000,0.483561,5.970586,7.768871,0.000076,0.000204,-0.000263,4
1784729913450000,0.479026,5.970766,7.788100,-0.000981,-0.000302,0.001360,5
1784729913460000,0.474037,5.970711,7.773803,-0.000981,0.000226,0.000823,6
1784729913470000,0.478905,5.985016,7.768838,-0.000981,0.000226,0.000823,7
1784729913480000,0.488513,5.980165,7.773520,-0.000987,-0.000306,0.000826,8
1784729913490000,0.488199,5.960918,7.764080,-0.000464,-0.000848,0.000287,9
1784729913500000,0.478897,5.970699,7.778521,0.000087,0.000212,0.000804,10
1784729913510000,0.474065,5.980267,7.768944,0.000620,0.000205,0.000795,11
1784729913520000,0.483607,5.975381,7.768836,-0.000975,0.000230,0.001356,12
1784729913530000,0.483561,5.970586,7.768871,-0.000442,-0.000304,0.001884,13
1784729913540000,0.488596,5.975437,7.783134,-0.000987,-0.000833,0.001363,14
1784729913550000,0.502471,5.955953,7.759112,-0.003133,-0.001341,0.000871,15
1784729913560000,0.493095,5.951384,7.778447,-0.001532,-0.000835,0.000306,16
1784729913571000,0.469224,5.975517,7.769050,-0.001525,0.000225,-0.000234,17
1784729913581000,0.497733,5.941715,7.773655,-0.000471,-0.001908,0.000827,18
1784729913591000,0.478675,5.961042,7.769011,-0.000987,-0.000833,0.001363,19
1784729913601000,0.493104,5.965701,7.768764,0.000080,-0.000847,0.001344,20
1784729913611000,0.493123,5.960940,7.773588,0.000608,-0.000858,0.000801,21
1784729913621000,0.498009,5.970484,7.773448,0.002204,-0.000883,0.000239,22
1784729913631000,0.469243,5.970757,7.773874,0.002198,-0.000887,-0.000294,23
1784729913641000,0.478786,5.965870,7.773766,0.002741,-0.001941,0.001837,24
1784729913651000,0.451259,6.014494,7.831317,0.001630,-0.006704,0.002951,25
1784729913661000,0.391288,6.159432,7.903041,0.006016,-0.048716,0.009523,26
1784729913671000,0.374673,6.218194,8.051378,0.001370,-0.068448,-0.005215,27
1784729913681000,0.343093,5.992773,8.005540,0.029449,-0.093213,0.001900,28
1784729913691000,0.494484,5.961646,7.874164,0.023654,-0.137233,0.007064,29
1784729913701000,0.632307,5.921536,7.810120,0.004189,-0.153514,0.001105,30
1784729913711000,0.784423,5.838304,7.770122,-0.004261,-0.131203,-0.015415,31
1784729913721000,0.703617,5.992106,7.712749,-0.006745,-0.110475,-0.020828,32
1784729913731000,0.818911,6.014993,7.710871,-0.019679,-0.072048,-0.024025,33
1784729913741000,0.852821,6.057795,7.705272,-0.029406,-0.028915,-0.032109,34
1784729913751000,0.740526,6.279781,7.753276,-0.050104,-0.007479,-0.044671,35
1784729913761000,0.402102,6.293564,7.897139,-0.076088,0.007743,-0.044831,36
1784729913771000,0.352333,6.345551,7.725053,-0.102878,-0.007274,-0.037330,37
1784729913781000,0.259326,6.073475,7.781060,-0.128556,0.019248,-0.019958,38
1784729913791000,0.425193,5.837111,7.804219,-0.138642,0.015206,-0.009618,39
1784729913801000,0.429150,5.703045,7.838644,-0.131534,0.025786,-0.005006,40
1784729913811000,0.586916,5.534335,7.923721,-0.128995,0.017220,-0.008201,41
1784729913821000,0.854596,5.636342,7.784880,-0.091365,0.060156,-0.031531,42
1784729913831000,0.699827,6.796721,7.563389,-0.105981,0.062291,-0.054224,43
1784729913841000,-0.029500,6.144914,8.005216,-0.169129,0.024506,-0.026202,44
1784729913851000,-0.009941,6.097221,8.067539,-0.153114,-0.040404,-0.004765,45
1784729913861000,0.197117,5.945310,7.883495,-0.163385,-0.073571,0.020688,46
1784729913871000,0.114361,6.052923,8.070794,-0.151769,-0.102275,0.040923,47
1784729913881000,0.146180,6.066016,7.931303,-0.179421,-0.149155,0.052362,48
1784729913891000,0.313346,5.978223,7.943809,-0.184454,-0.175617,0.060077,49
1784729913901000,0.349154,5.766619,7.906451,-0.200661,-0.194005,0.062074,50
1784729913911000,0.094254,5.942891,8.081454,-0.204648,-0.220497,0.067636,51
1784729913921000,0.210832,5.768303,7.961194,-0.233477,-0.265340,0.065747,52
1784729913931000,0.362211,5.574958,7.945939,-0.243750,-0.280066,0.069751,53
1784729913941000,0.415989,5.438881,7.764062,-0.250410,-0.302312,0.070001,54
1784729913951000,0.744848,5.534933,7.542915,-0.245057,-0.301841,0.070970,55
1784729913961000,0.848425,5.573651,7.727930,-0.224765,-0.280600,0.100359,56
1784729913971000,0.790550,5.328167,7.524538,-0.234209,-0.284039,0.120820,57
1784729913981000,2.063307,5.133504,7.449492,-0.138024,-0.234294,0.179632,58
1784729913991000,1.260417,5.436002,7.794632,-0.074371,-0.139955,0.243561,59
1784729914001000,0.616049,5.675142,8.204930,-0.030453,-0.167166,0.236005,60
1784729914011000,1.145801,5.854924,7.884390,-0.061905,-0.201511,0.279980,61
1784729914021000,1.002485,5.560752,8.137713,-0.044005,-0.158416,0.311950,62
1784729914031000,0.516240,5.652690,8.288013,-0.036919,-0.188319,0.307732,63
1784729914041000,1.251372,5.298017,7.934670,-0.066021,-0.195541,0.288554,64
1784729914051000,1.105335,5.219658,8.186505,-0.023521,-0.151035,0.269930,65
1784729914061000,1.228897,5.165433,8.141935,-0.006747,-0.144640,0.231715,66
1784729914071000,1.495280,5.300164,7.883120,0.010614,-0.101960,0.210348,67
1784729914081000,1.456385,5.157119,7.946989,0.042766,-0.024395,0.186378,68
1784729914091000,1.435779,5.223352,7.793530,0.063830,0.029805,0.148339,69
1784729914101000,1.608733,5.279158,7.776189,0.102442,0.114181,0.122079,70
1784729914111000,1.357798,5.299753,7.645642,0.102469,0.206309,0.071921,71
1784729914121000,1.773053,4.702963,7.217335,0.097886,0.381380,-0.054401,72
1784729914131000,1.406980,5.562343,7.547240,0.121278,0.563531,-0.114043,73
1784729914141000,1.157615,5.249787,7.773529,0.088438,0.635289,-0.170965,74
1784729914151000,1.094798,5.259664,7.731279,0.050444,0.698409,-0.252819,75
1784729914161000,0.823983,5.650260,8.350519,0.008592,0.677807,-0.303701,76
1784729914171000,0.366704,5.823137,8.456699,-0.039247,0.529887,-0.325984,77
1784729914181000,0.330985,5.896430,8.600428,-0.049075,0.396213,-0.300480,78
1784729914191000,0.333933,5.986075,8.398546,-0.081395,0.256975,-0.275609,79
1784729914201000,0.298669,5.990279,8.269697,-0.084524,0.194474,-0.249577,80
1784729914211000,0.544772,5.909928,8.084565,-0.119173,0.151327,-0.248172,81
1784729914221000,0.797132,5.854144,7.990184,-0.131079,0.136597,-0.247339,82
1784729914231000,0.561711,5.851335,7.960175,-0.127389,0.130717,-0.245237,83
1784729914241000,0.550761,5.636028,8.014558,-0.131128,0.120751,-0.233908,84
1784729914251000,0.508289,5.612932,8.082421,-0.101183,0.116720,-0.224281,85
1784729914261000,0.279009,5.730049,8.065841,-0.103811,0.103086,-0.204414,86
1784729914271000,0.145157,5.731520,8.096566,-0.082708,0.101984,-0.174908,87
1784729914281000,0.241054,5.711535,8.109652,-0.065578,0.081779,-0.146819,88
1784729914291000,0.164630,5.755347,8.100898,-0.051046,0.073256,-0.125154,89
1784729914301000,0.316802,5.657831,8.075372,-0.047352,0.049989,-0.102676,90
1784729914311000,0.283298,5.643865,8.090341,-0.038063,0.055308,-0.087401,91
1784729914321000,0.283122,5.639003,8.080796,-0.030547,0.048394,-0.075224,92
1784729914331000,0.311260,5.600238,8.061490,-0.025762,0.038833,-0.066183,93
1784729914341000,0.282457,5.610033,8.052268,-0.019366,0.028731,-0.055568,94
1784729914351000,0.296379,5.561948,8.052402,-0.017798,0.020781,-0.049681,95
1784729914361000,0.320515,5.619058,8.022895,-0.010925,0.020642,-0.056204,96
1784729914371000,0.368062,5.570690,8.027321,-0.011262,-0.001750,-0.064068,97
1784729914381000,0.320414,5.595150,8.032647,-0.006537,-0.003980,-0.069474,98
1784729914391000,0.310759,5.628603,8.003810,-0.012777,0.005714,-0.064085,99
1784729914401000,0.214739,5.514938,8.077903,-0.019532,0.013849,-0.054944,100
1784729914411000,0.210267,5.548547,8.077731,-0.023982,0.003226,-0.060670,101
1784729914421000,0.325189,5.599866,8.027752,-0.029318,0.003823,-0.061112,102
1784729914431000,0.238811,5.538618,8.067796,-0.032063,-0.000944,-0.063169,103
1784729914441000,0.243431,5.500315,8.082370,-0.038088,-0.012053,-0.065664,104
1784729914451000,0.406066,5.527207,8.031854,-0.042842,-0.011426,-0.061315,105
1784729914461000,0.392089,5.556179,8.041437,-0.047482,0.005625,-0.064534,106
1784729914471000,0.531785,5.218710,7.974683,-0.056074,0.009910,-0.074543,107
1784729914481000,0.684289,4.920989,8.118238,-0.033765,0.027982,-0.106522,108
1784729914491000,0.450811,4.952584,8.207718,-0.008607,0.051427,-0.126848,109
1784729914501000,0.438154,5.306664,8.080844,0.030078,0.044916,-0.147771,110
1784729914511000,0.412893,5.139239,8.106359,0.040758,0.049524,-0.152789,111
1784729914521000,0.510988,5.253980,8.185525,0.070087,0.064935,-0.173675,112
1784729914531000,0.235647,5.520425,8.202106,0.091113,0.053872,-0.193723,113
1784729914541000,0.224597,5.495903,8.111424,0.107606,0.064685,-0.211686,114
1784729914551000,0.274212,5.582194,8.172351,0.130277,0.050473,-0.223743,115
1784729914561000,0.075117,6.081450,7.984947,0.160967,0.059772,-0.208339,116
1784729914571000,0.690371,5.191314,8.374921,0.148469,0.026034,-0.191379,117
1784729914581000,0.434957,5.412498,8.123256,0.301443,0.096621,-0.296416,118
1784729914591000,0.257955,5.517097,8.436533,0.262495,0.047710,-0.291166,119
1784729914602000,0.859311,5.395469,8.308683,0.393346,0.054633,-0.346352,120
1784729914612000,0.518101,5.159719,8.425612,0.551740,0.013719,-0.421485,121
1784729914622000,0.634117,4.982600,8.621552,0.772234,-0.017836,-0.489777,122
1784729914632000,0.755251,4.306896,8.844901,1.155556,-0.022476,-0.588334,123
1784729914642000,-0.805336,3.969845,9.296867,1.691620,0.042329,-0.600394,124
1784729914652000,-0.422767,4.280594,8.991961,2.268977,-0.061016,-0.559915,125
1784729914662000,-0.666957,3.884554,8.950496,2.871747,-0.018685,-0.548489,126
1784729914672000,-0.195926,3.809164,9.082946,3.439983,-0.109828,-0.526591,127
1784729914682000,-0.101717,4.036393,8.792502,3.928767,0.031113,-0.603345,128
1784729914692000,0.702665,4.130656,8.272069,4.387458,0.128874,-0.810013,129
1784729914702000,1.071717,5.162402,7.511947,4.857974,0.685373,-0.950778,130
1784729914712000,2.897675,7.168535,8.112494,5.124665,0.926616,-1.144738,131
1784729914722000,1.852864,8.822913,8.748670,5.161409,1.397461,-1.323156,132
1784729914732000,1.604606,11.372128,9.486415,5.235119,1.281699,-1.452356,133
1784729914742000,1.124480,13.827488,10.879786,5.150901,1.049253,-1.598330,134
1784729914752000,-0.798162,17.022552,13.237906,4.930023,0.638022,-1.644786,135
1784729914762000,-1.650951,16.453064,12.286946,4.202043,-0.193424,-1.522889,136
1784729914772000,0.265969,14.009130,9.674482,3.867065,-0.870456,-1.408900,137
1784729914782000,3.357381,12.390408,9.994448,3.243186,-0.948161,-1.355189,138
1784729914792000,7.087801,7.767394,11.499866,2.493001,-0.848307,-1.378167,139
1784729914802000,11.554581,9.838278,16.563747,2.382293,-0.741797,-1.201306,140
1784729914812000,13.695781,3.865365,14.988539,0.994995,0.303105,-0.897889,141
1784729914822000,11.238021,0.104115,12.896024,1.121402,0.771171,-0.541728,142
1784729914832000,8.807363,1.779326,15.306004,0.511223,0.850033,-0.099736,143
1784729914842000,8.132749,-0.170524,14.692718,-0.121705,0.802371,0.242045,144
1784729914852000,6.890244,-2.261807,13.676897,-0.608477,0.773001,0.444541,145
1784729914862000,6.107852,-1.849075,14.040114,-1.088214,0.863235,0.518703,146
1784729914872000,5.253034,-0.318945,14.985727,-1.697460,0.911875,0.502054,147
1784729914882000,4.035776,1.616387,15.790147,-2.414465,0.867314,0.493742,148
1784729914892000,3.028810,3.429818,15.916837,-3.205969,0.672980,0.521783,149
1784729914902000,2.408072,4.290724,14.784620,-3.945855,0.407885,0.561593,150
1784729914912000,2.352081,4.026258,12.598060,-4.460702,0.117606,0.606615,151
1784729914922000,3.168010,4.471673,10.901289,-4.685469,-0.104121,0.646602,152
1784729914932000,3.386789,6.026531,10.000771,-4.789210,-0.251430,0.745347,153
1784729914942000,3.545499,7.671558,9.560398,-4.817461,-0.405962,0.927615,154
1784729914952000,3.442730,9.184105,9.029045,-4.809709,-0.607139,1.187407,155
1784729914962000,2.655592,9.859016,8.494648,-4.672827,-0.858485,1.499080,156
1784729914972000,3.233221,11.250422,8.006724,-4.497018,-1.069787,1.760208,157
1784729914982000,3.806909,11.943224,7.729800,-4.234837,-1.124404,1.936716,158
1784729914992000,4.076085,12.411130,7.794337,-3.966148,-1.086919,2.070420,159
1784729915002000,3.487124,12.994663,8.153466,-3.689898,-1.074645,2.188665,160
1784729915012000,3.042597,13.254965,8.431296,-3.434390,-1.135074,2.291705,161
1784729915022000,2.757780,12.743606,8.305023,-3.160048,-1.188666,2.348489,162
1784729915032000,2.046149,11.966515,8.014524,-2.820451,-1.200306,2.369720,163
1784729915042000,-0.665510,11.134104,8.103887,-2.345455,-1.378650,2.510093,164
1784729915052000,-0.565170,12.028255,9.212251,-2.042128,-1.535661,2.648595,165
1784729915062000,0.050138,12.834653,9.451279,-1.792925,-1.479474,2.627289,166
1784729915072000,-3.001629,15.824399,11.798912,-1.612859,-1.214911,2.552101,167
1784729915082000,-3.936964,18.200560,12.921769,-1.983708,-1.428923,2.388716,168
1784729915092000,-5.618406,19.894592,12.906045,-2.478911,-1.675363,2.158915,169
1784729915102000,-6.761098,16.092455,9.496019,-3.043073,-2.040287,1.896363,170
1784729915112000,-5.698672,15.149611,6.449699,-3.172033,-2.235924,1.557845,171
1784729915122000,-4.683219,14.310444,3.757842,-3.115514,-2.128760,1.214239,172
1784729915132000,-4.360908,14.192595,1.780186,-2.938457,-1.855247,0.988074,173
1784729915142000,-4.371253,14.451580,-0.243095,-2.667485,-1.523437,0.957285,174
1784729915152000,-4.145498,15.333947,-2.633595,-2.355575,-1.113782,1.086956,175
1784729915162000,-3.694077,15.871140,-4.042951,-2.194853,-0.853088,1.163647,176
1784729915172000,-3.005121,15.342678,-6.631550,-1.845937,-0.114972,1.198426,177
1784729915182000,-4.275057,13.457508,-7.696326,-1.281375,0.597106,1.047600,178
1784729915192000,-6.304666,12.192754,-6.148150,-0.572712,0.870100,0.812508,179
1784729915202000,-7.389613,11.284870,-3.083592,0.027253,0.641548,0.589245,180
1784729915212000,-6.700863,10.641600,-0.262876,0.453487,0.112572,0.422063,181
1784729915222000,-4.203244,10.074572,1.500421,0.691165,-0.336538,0.364999,182
1784729915232000,0.236739,9.920865,1.904912,0.810592,-0.358620,0.321924,183
1784729915242000,2.109709,9.284328,1.848017,0.922286,-0.031256,0.276925,184
1784729915252000,1.270750,8.511797,1.358179,1.128994,0.235344,0.301014,185
1784729915262000,0.250101,9.912897,1.478413,1.418727,0.302993,0.315730,186
1784729915272000,11.320018,3.393989,0.943097,1.450773,0.111464,-0.048619,187
1784729915282000,3.042290,-8.109627,11.706081,1.106417,3.417380,-0.875036,188
1784729915292000,21.098003,6.403329,14.764598,2.798193,2.015296,-1.067599,189
1784729915302000,-1.638728,-3.137738,2.748704,2.634150,3.744584,-1.262671,190
1784729915312000,-5.611822,8.697903,9.004349,2.501163,2.336989,-1.620107,191
1784729915322000,-11.576002,5.959949,14.664710,2.458687,1.972114,-1.229883,192
1784729915332000,-7.116097,2.984198,10.748685,2.728065,1.011436,-1.103639,193
1784729915342000,-8.980197,11.459303,11.866106,2.947490,0.898346,-1.398165,194
1784729915352000,-6.556952,12.079641,12.592135,2.533961,0.356626,-1.447891,195
1784729915362000,-1.988540,8.968931,10.064703,2.330079,-0.008428,-1.342878,196
1784729915372000,2.515775,5.641253,8.632002,2.311113,0.096963,-1.225794,197
1784729915382000,5.915909,14.808660,9.498514,2.334222,0.624756,-1.285336,198
1784729915392000,14.726508,20.861536,8.404747,1.119773,1.331609,-0.817086,199
1784729915402000,0.646141,7.335843,7.105269,0.628834,1.964365,-0.407160,200
1784729915412000,-8.183537,10.497718,11.889807,0.274335,0.898185,-0.515127,201
1784729915422000,0.526874,9.662187,9.035514,0.171066,0.479878,-0.323564,202
1784729915432000,-2.657628,7.622792,8.714107,-0.123802,0.323817,-0.162682,203
1784729915442000,0.691141,7.036118,8.170218,-0.013744,0.120989,-0.080219,204
1784729915452000,0.106278,6.647922,8.109815,0.017691,0.132025,-0.045634,205
1784729915462000,0.128138,5.942741,8.104904,0.053193,0.108070,0.008825,206
1784729915472000,-0.417787,6.019797,8.107691,0.130260,0.054546,0.089927,207
1784729915482000,-0.062010,6.274591,7.990409,0.158438,0.028694,0.161599,208
1784729915492000,0.744825,5.959827,7.947099,0.185822,-0.011997,0.170954,209
1784729915502000,0.993183,6.214610,7.687701,0.211167,-0.054058,0.138208,210
1784729915512000,0.881914,6.205592,7.622354,0.188098,-0.040152,0.110795,211
1784729915522000,1.015869,6.161236,7.630256,0.161620,-0.047970,0.087839,212
1784729915532000,0.828125,6.110126,7.614249,0.144216,-0.055378,0.064186,213
1784729915542000,0.836890,5.890146,7.711488,0.127077,-0.045191,0.046826,214
1784729915552000,0.708256,5.949042,7.732147,0.133261,-0.056509,0.037713,215
1784729915562000,0.674115,5.882265,7.737918,0.142121,-0.077868,0.040882,216
1784729915572000,0.870332,6.051979,7.585290,0.134320,-0.054422,0.034481,217
1784729915582000,0.851836,6.143161,7.570548,0.113566,-0.050417,0.036427,218
1784729915592000,1.015751,6.108695,7.659373,0.107037,-0.055700,0.030173,219
1784729915602000,0.751662,5.982163,7.726476,0.110087,-0.064817,0.025371,220
1784729915612000,0.708165,5.906056,7.756405,0.106480,-0.053077,0.024832,221
1784729915623000,0.633673,6.036747,7.828445,0.123990,-0.031360,0.042531,222
1784729915633000,0.843211,5.914746,7.807030,0.154492,-0.030110,0.048382,223
1784729915643000,0.691222,6.064837,7.808228,0.186499,-0.027901,0.043532,224
1784729915653000,0.654217,6.118380,7.870677,0.205676,-0.033974,0.046427,225
1784729915663000,0.654350,6.266347,7.773816,0.225986,-0.031051,0.045515,226
1784729915673000,0.505122,6.305607,7.703900,0.253604,-0.053646,0.057427,227
1784729915683000,0.213587,6.289763,7.789790,0.220261,-0.047199,0.078788,228
1784729915693000,0.620089,6.180425,7.784515,0.314519,-0.068604,0.080438,229
1784729915703000,0.495528,6.439281,7.607285,0.251038,-0.077773,0.095493,230
1784729915713000,0.747956,6.102047,7.720891,0.290325,-0.105317,0.105626,231
1784729915723000,1.037447,6.059578,7.525263,0.290090,-0.108132,0.085374,232
1784729915733000,1.062384,6.012143,7.630620,0.315482,-0.102841,0.056082,233
1784729915743000,1.089077,5.977400,7.501124,0.325381,-0.101576,0.030291,234
1784729915753000,0.988645,5.997564,7.507267,0.347157,-0.087713,0.003147,235
1784729915763000,1.054979,5.982209,7.458483,0.376024,-0.103748,-0.027682,236
1784729915773000,0.912356,6.155948,7.425841,0.424712,-0.104701,-0.069088,237
1784729915783000,0.691100,6.043159,7.458676,0.466660,-0.122273,-0.071332,238
1784729915793000,0.749938,6.238900,7.413298,0.528889,-0.146431,-0.066429,239
1784729915803000,0.677774,6.220367,7.409713,0.626318,-0.178967,-0.055167,240
1784729915813000,0.637740,6.086273,7.382516,0.724174,-0.186935,-0.029655,241
1784729915823000,0.807182,6.262062,7.373959,0.863541,-0.219772,0.011804,242
1784729915833000,0.719745,6.057137,7.438988,1.023237,-0.215529,0.068154,243
1784729915843000,0.466564,6.255623,7.369492,1.244088,-0.211832,0.154894,244
1784729915853000,0.784393,5.826215,7.420500,1.473953,-0.191962,0.216837,245
1784729915863000,1.239450,5.726282,7.452761,1.743536,-0.188547,0.212551,246
1784729915873000,1.265420,5.746176,7.586368,2.042373,-0.203395,0.165173,247
1784729915883000,1.343615,5.595790,7.447345,2.335747,-0.187290,0.123044,248
1784729915893000,1.127326,5.554609,7.441274,2.691610,-0.145719,0.107928,249
1784729915903000,1.118532,5.831825,7.300516,3.102388,-0.077719,0.162098,250
1784729915913000,0.955392,5.900091,7.244974,3.498682,-0.010116,0.209594,251
1784729915923000,1.136323,6.289227,7.579651,3.837083,0.087963,0.251539,252
1784729915933000,0.952207,6.022775,7.632184,4.188153,0.162584,0.306200,253
1784729915943000,0.209169,6.375881,7.755711,4.659866,0.085703,0.428428,254
1784729915953000,0.512337,6.769889,8.260994,5.227714,-0.082148,0.499866,255
1784729915963000,0.871588,7.482255,8.427851,5.908381,-0.211664,0.491713,0
1784729915973000,1.691368,12.392532,8.783269,6.523387,-0.375519,0.203249,1
1784729915983000,0.083594,11.767832,9.855952,7.113086,-0.892241,-0.233661,2
1784729915993000,2.445129,13.447934,9.152607,7.613844,-1.114849,-0.135098,3
1784729916003000,4.675052,15.751765,10.334268,7.873274,-1.466001,-0.478545,4
1784729916013000,3.299681,16.963171,10.959338,7.958366,-1.434555,-0.600281,5
1784729916023000,6.864391,20.161316,10.189011,8.074137,-1.729209,-1.227989,6
1784729916033000,6.146603,23.291344,13.746455,6.733035,-1.239651,-1.749564,7
1784729916043000,2.393605,21.057236,17.645756,5.909966,-2.536032,-1.738465,8
1784729916053000,3.808202,13.742341,11.870417,3.621031,-2.713515,-1.945275,9
1784729916063000,10.363877,-2.190965,7.329961,2.039521,-3.499149,-1.922087,10
1784729916073000,16.415020,56.906704,51.176670,4.231428,-3.591004,-0.965072,11
1784729916083000,19.078350,-3.169469,23.399183,-4.928796,0.287345,-1.554695,12
1784729916093000,16.036934,-4.159152,15.139895,-3.714239,0.640306,-2.220191,13
1784729916103000,8.893461,-6.598669,11.359201,-3.277656,1.235688,-2.542502,14
1784729916113000,7.290618,0.843037,15.172329,-3.312477,0.998908,-2.281741,15
1784729916123000,7.745164,4.675840,16.604311,-4.050179,0.468745,-1.664769,16
1784729916133000,8.459187,5.307929,15.396368,-5.051910,0.101564,-1.107009,17
1784729916143000,8.727290,5.297017,12.877432,-5.938052,0.077429,-0.756592,18
1784729916153000,7.940972,5.265380,10.776736,-6.557881,0.265681,-0.551410,19
1784729916163000,6.530170,6.210616,9.674842,-6.970401,0.414767,-0.389700,20
1784729916173000,4.731394,6.334049,8.488731,-7.293617,0.405078,-0.189698,21
1784729916183000,3.182313,6.173843,7.530861,-7.372118,0.192640,0.052491,22
1784729916193000,1.973365,6.430417,6.957799,-7.221294,-0.174964,0.344328,23
1784729916203000,1.234109,7.393923,7.278148,-6.938038,-0.617885,0.673731,24
1784729916213000,1.244282,9.427429,7.991749,-6.680037,-1.056509,1.035034,25
1784729916223000,1.414917,11.145432,8.384233,-6.460268,-1.370870,1.380279,26
1784729916233000,1.346878,12.696728,8.623362,-6.202470,-1.586131,1.677315,27
1784729916243000,1.052264,13.803282,8.739669,-5.874754,-1.680678,1.887036,28
1784729916253000,0.776094,14.052744,9.062977,-5.495104,-1.695033,1.966254,29
1784729916263000,-1.202313,13.177910,10.214806,-5.032352,-1.695194,1.958017,30
1784729916273000,-2.915334,15.496920,12.389182,-4.551200,-1.972858,1.921214,31
1784729916283000,-3.487904,19.210604,15.269658,-4.277288,-2.317420,1.897031,32
1784729916293000,-2.989293,25.379282,16.152687,-4.405136,-2.517491,1.941566,33
1784729916303000,-1.814297,28.161907,14.505874,-5.068521,-2.155892,2.075546,34
1784729916313000,-0.225249,26.652664,10.732361,-5.268696,-1.729505,2.278787,35
1784729916323000,-0.828598,25.598148,7.999050,-5.259471,-1.210737,2.602592,36
1784729916333000,-7.638733,23.548616,5.542398,-5.002857,-1.070530,3.065068,37
1784729916343000,-8.808079,23.987843,1.724270,-4.623241,-1.242779,3.216173,38
1784729916353000,-7.051372,21.500261,-3.850833,-4.331101,-1.043518,2.999601,39
1784729916363000,-6.981667,21.108292,-6.938980,-3.542828,-0.451116,2.669979,40
1784729916373000,-8.532769,21.647779,-9.976074,-2.887967,0.088436,2.299298,41
1784729916383000,-11.704945,23.218781,-13.053840,-2.218391,0.420021,1.878368,42
1784729916393000,-15.592799,21.207521,-15.056032,-1.455500,0.236704,1.453479,43
1784729916403000,-15.439822,16.586411,-14.608795,-0.326776,-0.622316,0.969514,44
1784729916413000,-8.118600,15.261534,-10.583713,0.813570,-0.811774,0.448315,45
1784729916423000,-1.072382,16.969347,-5.306536,1.336941,-0.126819,-0.106538,46
1784729916433000,0.646586,17.316282,-1.482993,1.377658,0.676846,-0.218169,47
1784729916443000,0.463879,15.235075,-0.373291,1.318329,0.939290,0.058754,48
1784729916453000,0.150373,11.855529,-1.274044,1.593324,0.753299,0.386787,49
1784729916463000,-2.120202,-12.352971,0.349246,1.231557,0.266981,0.164562,50
1784729916473000,35.834454,0.721958,12.750794,2.485466,-4.181892,-0.049174,51
1784729916483000,7.292905,-2.729105,6.521968,3.917029,3.407940,-1.134146,52
1784729916493000,-7.705410,-3.521666,5.510019,4.100723,1.231041,-1.766895,53
1784729916503000,-2.521772,19.470242,15.957648,3.663882,1.130031,-1.666761,54
1784729916513000,-2.060881,8.334856,10.491838,3.554432,0.837264,-1.277371,55
1784729916523000,-2.472712,14.978000,12.156328,3.972220,0.637885,-1.334847,56
1784729916533000,-2.961924,18.044973,14.570673,3.054425,0.304751,-1.177301,57
1784729916543000,-0.495724,8.230287,9.985446,2.634677,0.143895,-1.220628,58
1784729916553000,1.832683,13.482704,8.519545,2.622471,0.296068,-1.228777,59
1784729916563000,9.581392,19.033695,12.978186,1.756832,1.062978,-1.341662,60
1784729916573000,10.849174,9.868269,4.401316,0.682684,1.860275,-0.774013,61
1784729916583000,0.126077,7.638469,8.509696,1.008223,2.495713,-0.716338,62
1784729916593000,-2.102607,7.937482,10.528808,0.255668,1.990312,-0.758642,63
1784729916603000,-0.320587,8.678733,10.559316,0.207295,1.389259,-0.792112,64
1784729916613000,-1.217036,7.658388,9.540340,-0.073399,1.033463,-0.851702,65
1784729916623000,-2.594783,8.691745,9.405015,-0.333729,0.490728,-0.848133,66
1784729916633000,-0.444060,7.710856,8.498505,-0.117159,0.353467,-0.706603,67
1784729916643000,-1.616105,6.565899,8.471361,-0.124851,0.186350,-0.535829,68
1784729916654000,-1.034879,6.439188,8.276779,-0.030429,0.108469,-0.346061,69
1784729916664000,-0.213764,6.133777,8.218820,0.063776,0.057295,-0.208728,70
1784729916674000,0.214796,6.180659,7.958213,0.129994,0.032756,-0.178286,71
1784729916684000,0.381631,6.226282,7.850016,0.139780,0.022758,-0.149059,72
1784729916694000,0.994401,6.086426,7.870631,0.145575,0.026839,-0.161457,73
1784729916704000,0.722928,5.677113,7.949428,0.159341,0.028793,-0.228400,74
1784729916714000,0.223438,6.153692,7.551081,0.181971,0.072932,-0.258405,75
1784729916724000,0.276589,6.015050,7.680616,0.178471,0.019522,-0.226552,76
1784729916734000,0.287761,5.810631,7.945377,0.189972,0.018549,-0.196342,77
1784729916744000,0.159264,5.917307,7.941743,0.217676,0.003398,-0.184475,78
1784729916754000,0.182282,5.911815,7.874372,0.235625,0.006591,-0.154938,79
1784729916764000,0.143998,5.993320,7.821668,0.251697,0.000634,-0.142385,80
1784729916774000,0.197077,6.021624,7.825468,0.259738,-0.008400,-0.128605,81
1784729916784000,0.259200,6.006617,7.819860,0.269419,-0.001090,-0.129887,82
1784729916794000,0.191723,6.097715,7.729198,0.272946,-0.011837,-0.138422,83
1784729916804000,0.570396,6.179970,7.655914,0.266220,0.001589,-0.132513,84
1784729916814000,0.303226,6.278607,7.687933,0.276678,-0.015468,-0.188082,85
1784729916824000,0.338271,6.128630,7.549550,0.264288,0.015583,-0.181643,86
1784729916834000,0.101493,6.239619,7.336713,0.230088,-0.007085,-0.212376,87
1784729916844000,0.184027,6.191674,7.446007,0.192331,0.000360,-0.206413,88
1784729916854000,-0.080569,6.227091,7.358673,0.171701,-0.003445,-0.183083,89
1784729916864000,-0.483574,6.335713,7.268090,0.131488,-0.018462,-0.129996,90
1784729916874000,0.480695,5.658989,7.780703,0.169059,-0.059774,-0.115484,91
1784729916884000,-0.040351,5.950981,7.695367,0.231197,-0.047225,-0.108662,92
1784729916894000,0.281121,5.866971,7.767827,0.285668,-0.047376,-0.106430,93
1784729916904000,0.228473,5.943850,7.720161,0.367194,-0.049059,-0.119608,94
1784729916914000,-0.031552,5.788270,7.753875,0.444043,-0.052690,-0.117754,95
1784729916924000,-0.249984,5.915491,7.823291,0.568672,-0.069894,-0.073457,96
1784729916934000,-0.110012,5.606791,7.756329,0.703712,-0.101665,-0.038863,97
1784729916944000,-0.270383,5.681263,7.901903,0.882420,-0.098353,-0.002052,98
1784729916954000,-0.001740,5.802853,7.820395,1.082699,-0.124544,0.037216,99
1784729916964000,-0.142161,5.727114,7.775116,1.310756,-0.134740,0.059891,100
1784729916974000,-0.161688,5.684175,7.780502,1.547330,-0.149278,0.085107,101
1784729916984000,0.181734,5.935386,7.816726,1.798853,-0.207634,0.107648,102
1784729916994000,0.692062,5.633357,7.825644,2.081166,-0.231737,0.073423,103
1784729917004000,0.720390,5.694880,7.748138,2.379138,-0.219013,0.014694,104
1784729917014000,1.120855,5.637422,7.613242,2.670138,-0.238679,-0.116808,105
1784729917024000,0.363056,5.687367,7.571469,3.050048,-0.158291,-0.227544,106
1784729917034000,1.108089,5.599937,7.048417,3.409101,-0.150276,-0.311873,107
1784729917044000,0.906716,5.938332,7.163988,3.788331,0.248464,-0.377527,108
1784729917054000,1.486994,5.672771,6.999147,4.097903,0.680451,-0.453874,109
1784729917064000,1.431354,6.087128,7.198241,4.512346,1.106020,-0.498974,110
1784729917074000,1.994891,6.562799,7.392478,4.934101,1.423563,-0.542499,111
1784729917084000,1.392083,7.535432,7.155032,5.442195,1.739895,-0.598758,112
1784729917094000,0.535892,12.217365,8.931047,6.134133,1.518196,-0.814629,113
1784729917104000,1.749202,14.868648,13.785332,5.057694,1.164039,-0.749096,114
1784729917114000,0.478328,17.795210,10.961893,6.645134,0.792793,-1.140074,115
1784729917124000,2.202977,10.195451,12.034404,7.012372,0.923731,-1.401860,116
1784729917134000,1.153802,13.243210,11.697879,7.660770,0.616678,-1.655931,117
1784729917144000,-0.759261,14.332155,10.588068,8.225504,0.498997,-1.633281,118
1784729917154000,1.691541,23.269667,10.924217,8.691756,-0.451607,-1.796553,119
1784729917164000,4.701307,21.610451,15.537992,6.824007,-0.224006,-1.938030,120
1784729917174000,1.575977,16.338818,11.257680,5.491871,-0.292253,-2.040882,121
1784729917184000,2.923448,2.296368,7.485535,4.146451,-0.746342,-1.533041,122
1784729917194000,-5.835306,16.420067,20.316082,5.665293,-1.464733,-1.283762,123
1784729917204000,21.001060,39.126247,34.539433,-0.201639,-2.382691,-1.353684,124
1784729917214000,15.101618,10.225649,19.713079,-1.039634,-0.633667,-1.223182,125
1784729917224000,11.300158,3.586889,17.847776,-3.012407,1.185895,-1.211601,126
1784729917234000,7.545527,-1.461650,15.108215,-3.273190,1.414498,-0.968770,127
1784729917244000,3.993735,0.381114,15.339633,-3.551341,0.890869,-0.527533,128
1784729917254000,2.140389,3.786010,16.282032,-4.099075,0.077292,-0.071784,129
1784729917264000,1.896537,6.160400,16.048475,-4.941597,-0.614052,0.232179,130
1784729917274000,2.269427,7.398994,14.711967,-5.864589,-1.049438,0.361613,131
1784729917284000,2.176071,7.913358,12.750388,-6.680289,-1.310524,0.449163,132
1784729917294000,2.541818,7.451452,10.329005,-7.267148,-1.381704,0.513913,133
1784729917304000,2.880236,7.542043,8.684969,-7.548141,-1.385875,0.605899,134
1784729917314000,3.324136,8.316708,7.614171,-7.673626,-1.333101,0.755066,135
1784729917324000,3.345515,8.391180,6.655221,-7.623120,-1.288192,1.002508,136
1784729917334000,3.370974,9.386610,6.403472,-7.407786,-1.262980,1.313286,137
1784729917344000,2.767110,10.432789,6.390675,-7.110534,-1.239148,1.649822,138
1784729917354000,2.384641,12.391400,6.847171,-6.776026,-1.339912,1.958687,139
1784729917364000,2.038817,14.127060,7.692733,-6.421476,-1.414664,2.159811,140
1784729917374000,1.921899,15.662063,8.943505,-6.119542,-1.497304,2.286696,141
1784729917384000,1.261114,16.893223,9.912301,-5.890666,-1.576208,2.363644,142
1784729917394000,0.194878,15.902935,10.864544,-5.602215,-1.714202,2.327314,143
1784729917404000,-1.610811,16.656244,11.916039,-5.278121,-2.015556,2.200086,144
1784729917414000,-3.338164,18.636097,12.914563,-4.993886,-2.502892,2.091736,145
1784729917424000,-4.957841,25.685938,12.198884,-4.877282,-2.870082,2.111033,146
1784729917434000,-2.108409,21.487137,8.162192,-4.959950,-3.263419,2.198584,147
1784729917444000,-3.753771,24.167797,8.689852,-4.769533,-2.864670,2.096279,148
1784729917454000,-8.274784,24.103058,8.479734,-4.521939,-2.777071,2.144703,149
1784729917464000,-11.359835,21.966070,6.710802,-4.524308,-2.932346,2.140327,150
1784729917474000,-10.839372,23.118200,2.862478,-4.319330,-3.224971,2.049311,151
1784729917484000,-8.189355,20.682495,-3.008927,-4.003620,-2.816238,1.866294,152
1784729917494000,-7.686453,20.757122,-6.672107,-3.261228,-1.866215,1.767447,153
1784729917504000,-7.080011,22.917471,-10.916885,-2.575639,-0.754937,1.727879,154
1784729917514000,-8.351420,23.963131,-14.560543,-2.017589,0.445476,1.590292,155
1784729917524000,-12.481077,19.965525,-16.348656,-1.228321,1.193458,1.234127,156
1784729917535000,-16.842943,15.436711,-12.917460,0.051262,0.894238,0.776716,157
1784729917544000,-14.644997,14.555866,-6.471931,1.105927,-0.022219,0.373366,158
1784729917554000,-6.288227,15.108820,-2.044415,1.479657,-0.028811,0.011979,159
1784729917564000,-4.267941,15.900993,1.397829,1.500772,0.714642,-0.281936,160
1784729917574000,-3.823019,11.581902,0.870897,1.511749,1.038267,-0.358196,161
1784729917584000,-12.062242,2.661996,16.903740,4.030860,1.441186,-2.002161,162
1784729917594000,23.510324,-10.717405,17.144655,4.011134,0.891112,-2.805736,163
1784729917604000,-1.745257,3.837718,9.038731,2.769120,2.328079,-3.052981,164
1784729917614000,-2.890420,11.690953,5.943781,3.952798,0.653425,-2.226591,165
1784729917625000,-1.043060,13.000722,11.128680,4.314451,0.363166,-1.494031,166
1784729917634000,-4.716532,13.821039,13.745252,4.162607,0.246351,-1.382874,167
1784729917644000,-5.287732,15.712839,11.987018,3.964425,-0.316806,-1.440041,168
1784729917654000,1.748033,16.873783,11.184262,3.481798,-0.346854,-1.249351,169
1784729917665000,16.488224,25.666828,16.105133,2.662818,0.950739,-1.152268,170
1784729917675000,7.100148,16.498960,3.983770,0.940867,2.328379,-0.266019,171
1784729917685000,-7.902995,10.689447,11.572890,1.204304,2.176118,-0.331695,172
1784729917695000,-1.968528,6.673488,9.644731,0.115602,1.016916,-0.350287,173
1784729917705000,-0.556392,8.691694,8.708800,0.671395,0.923256,-0.128627,174
1784729917715000,-1.985683,6.948900,9.240630,0.275806,0.699800,0.020576,175
1784729917725000,3.333850,5.990121,7.520327,0.304767,0.519338,-0.024755,176
1784729917735000,1.420679,5.857943,7.995250,0.399833,0.641777,-0.054911,177
1784729917745000,0.180385,7.595555,7.943910,0.305034,0.403525,-0.077959,178
1784729917755000,0.884788,6.884846,8.058227,0.283284,0.319288,-0.073874,179
1784729917765000,0.397393,7.004814,8.102954,0.228592,0.226744,-0.097962,180
1784729917775000,0.355613,6.769625,8.019011,0.199060,0.129083,-0.055781,181
1784729917785000,-0.210188,6.261914,8.035819,0.237980,0.084811,-0.009799,182
1784729917795000,0.438118,6.461503,7.957691,0.239900,0.041935,0.018162,183
1784729917805000,0.497369,6.268482,7.867157,0.264401,0.022082,0.035448,184
1784729917815000,0.621152,6.438607,7.677279,0.247422,0.019218,0.049104,185
1784729917825000,1.017110,6.390884,7.556752,0.233231,-0.002977,0.043620,186
1784729917835000,1.026718,6.352636,7.585624,0.226959,-0.025342,0.029459,187
1784729917845000,0.947758,6.380819,7.399768,0.192627,-0.021346,0.008173,188
1784729917855000,1.025409,6.437834,7.426952,0.151231,-0.026843,-0.014531,189
1784729917865000,1.272191,6.085892,7.488050,0.120339,-0.033662,-0.052885,190
1784729917875000,1.049683,6.294636,7.552159,0.106639,-0.024279,-0.099111,191
1784729917885000,0.748576,6.522211,7.464007,0.076583,-0.022969,-0.116722,192
1784729917895000,0.700417,6.594116,7.397147,0.020498,-0.024389,-0.118383,193
1784729917905000,0.667083,6.718595,7.324904,-0.057221,0.017876,-0.144990,194
1784729917915000,0.969317,6.498615,7.135134,-0.133822,0.037090,-0.193354,195
1784729917925000,1.387179,5.853228,7.291576,-0.201434,0.049380,-0.295721,196
1784729917935000,1.383537,5.758452,7.445598,-0.263440,0.040950,-0.454081,197
1784729917945000,1.643814,5.866454,7.464912,-0.284743,-0.005728,-0.608672,198
1784729917955000,1.228202,6.019071,7.474806,-0.328367,0.010446,-0.718957,199
1784729917965000,0.537002,5.989536,7.806266,-0.323196,-0.057509,-0.763995,200
1784729917975000,0.213002,6.322856,7.722497,-0.305411,-0.016084,-0.741616,201
1784729917985000,0.139968,6.294331,7.661509,-0.315632,-0.026773,-0.630405,202
1784729917995000,0.073032,6.099453,7.817182,-0.267771,-0.006249,-0.512409,203
1784729918005000,-0.115082,5.828688,7.932081,-0.202658,0.035792,-0.402317,204
1784729918015000,0.253764,5.839347,7.892983,-0.110764,0.053431,-0.308562,205
1784729918025000,0.277176,5.733870,7.926916,-0.015284,0.050992,-0.260099,206
1784729918035000,0.253446,5.705596,7.965794,0.113178,0.038558,-0.211631,207
1784729918045000,0.239786,5.687023,8.033195,0.234620,0.036689,-0.183373,208
1784729918055000,0.177176,5.825822,7.913381,0.353253,0.014195,-0.145340,209
1784729918065000,0.329517,5.685456,7.931271,0.470715,-0.000459,-0.126539,210
1784729918075000,0.167179,5.649176,8.010592,0.634636,0.005912,-0.130562,211
1784729918085000,0.084527,5.429889,8.085234,0.864044,-0.006605,-0.130304,212
1784729918095000,0.081703,5.223273,8.024462,1.185864,-0.029737,-0.111890,213
1784729918105000,-0.144163,5.413725,8.208513,1.539205,-0.015421,-0.080920,214
1784729918115000,0.223044,5.213613,8.199677,1.903339,-0.032658,-0.055292,215
1784729918125000,0.255841,5.093627,8.228782,2.329988,-0.029042,-0.047971,216
1784729918135000,0.608697,5.017712,8.133049,2.728279,-0.106048,-0.061009,217
1784729918145000,0.486266,4.979343,7.972265,3.132039,-0.119896,-0.080386,218
1784729918155000,0.498225,5.080379,7.362975,3.591184,-0.159847,-0.082989,219
1784729918165000,0.449612,4.937358,7.417407,4.062563,-0.061729,-0.089292,220
1784729918175000,1.056044,5.922979,7.224151,4.485415,0.211032,-0.078157,221
1784729918185000,1.256847,5.713104,6.973543,4.631616,0.681753,-0.094207,222
1784729918195000,1.202055,5.958386,7.001364,5.002895,0.953753,-0.061343,223
1784729918205000,1.550713,6.615602,7.489734,5.488816,1.193099,-0.004186,224
1784729918215000,0.806208,8.466896,8.560773,6.100294,1.249677,0.007534,225
1784729918225000,0.612669,13.648539,9.326961,6.739406,0.998961,-0.332596,226
1784729918235000,0.170821,14.082568,11.102953,6.267772,0.333815,-0.551810,227
1784729918245000,1.090046,20.240946,9.752204,7.616812,0.208247,-0.723396,228
1784729918255000,3.504048,15.041796,10.783079,8.102782,0.243979,-1.333503,229
1784729918265000,3.350769,16.196228,11.744866,8.423267,0.438199,-1.805560,230
1784729918275000,1.626012,19.398785,12.054436,8.757245,0.094888,-1.910309,231
1784729918285000,5.893080,21.202135,15.657285,7.086732,0.139997,-2.349775,232
1784729918295000,5.658326,18.884312,13.784943,6.393166,0.370585,-2.626873,233
1784729918305000,4.328948,7.283812,10.682051,4.731831,0.227913,-2.252887,234
1784729918315000,-3.494561,4.416285,17.252455,4.427171,-0.886347,-1.432649,235
1784729918325000,12.923923,58.771305,49.845322,2.923928,-3.448651,-0.822599,236
1784729918335000,13.711924,6.469899,27.841978,-2.978136,-0.991758,-1.038247,237
1784729918345000,17.432325,4.491994,20.998089,-4.288823,0.175422,-1.488605,238
1784729918355000,12.889917,-3.735318,12.620793,-4.601660,1.244419,-1.974821,239
1784729918365000,7.534370,-3.072221,11.167612,-4.404892,1.757919,-2.215023,240
1784729918375000,3.947593,-0.091281,12.253780,-4.443663,1.394990,-2.043608,241
1784729918385000,2.066425,3.123538,13.403932,-4.745718,0.438007,-1.571114,242
1784729918395000,2.244268,5.264830,13.314257,-5.292214,-0.625427,-0.970403,243
1784729918405000,3.926409,6.157295,12.228989,-5.867089,-1.371997,-0.423339,244
1784729918415000,5.421638,7.378224,10.559731,-6.385750,-1.618900,-0.009329,245
1784729918425000,6.297268,8.585622,9.541718,-6.788376,-1.569947,0.349654,246
1784729918435000,5.780025,8.991265,8.588437,-7.104401,-1.363192,0.698696,247
1784729918445000,4.357535,8.749780,7.830460,-7.196218,-1.219257,1.066523,248
1784729918455000,3.006675,9.533802,7.734825,-7.126273,-1.289299,1.468477,249
1784729918465000,2.131153,10.934214,7.948715,-6.983634,-1.482645,1.861862,250
1784729918475000,1.124879,12.106167,8.233236,-6.810405,-1.738216,2.236398,251
1784729918485000,0.455646,13.335185,8.220116,-6.521714,-1.966990,2.488684,252
1784729918495000,-0.860114,14.341683,8.433766,-6.133281,-2.287299,2.624501,253
1784729918505000,-1.661099,15.150887,8.554925,-5.679377,-2.606790,2.633776,254
1784729918515000,-2.275678,14.832088,9.442994,-5.057292,-2.849253,2.503030,255
1784729918525000,-4.161389,19.735214,13.311850,-4.532216,-3.208490,2.308546,0
1784729918535000,-5.093179,27.139338,16.770340,-4.591186,-3.676662,2.183254,1
1784729918545000,-1.789547,32.876934,14.012211,-5.327036,-3.774223,2.166520,2
1784729918555000,-2.596539,22.027439,9.986026,-5.513924,-3.276822,2.495543,3
1784729918565000,4.624036,23.493362,9.154408,-5.239399,-2.478510,3.029040,4
1784729918575000,-0.376203,23.420897,7.907143,-4.974731,-1.504394,3.655035,5
1784729918585000,-11.804666,24.221344,7.664338,-4.499715,-1.199498,4.520773,6
1784729918595000,-12.019204,25.276339,2.012032,-4.354985,-1.718105,4.804540,7
1784729918605000,-8.940922,22.252829,-3.684332,-4.027593,-1.046313,4.418636,8
1784729918615000,-8.660232,21.569511,-8.344845,-3.468252,0.098353,3.620893,9
1784729918625000,-12.378093,23.329370,-12.551182,-2.815379,1.177338,2.536454,10
1784729918635000,-20.329868,23.986773,-14.842356,-2.234004,1.359196,1.529535,11
1784729918645000,-26.291872,19.550522,-15.986906,-1.221290,-0.286590,0.548662,12
1784729918655000,-16.439650,16.767115,-12.774799,0.204765,-1.764282,-0.290650,13
1784729918665000,-4.213782,17.071669,-7.176724,0.906860,-1.432798,-1.142686,14
1784729918675000,-1.631207,17.272709,-2.507495,0.978946,0.120929,-1.704768,15
1784729918685000,-0.113117,16.750082,-0.509573,0.977437,0.718306,-1.477264,16
1784729918696000,1.457474,12.815520,-2.124265,1.173349,0.904505,-0.945692,17
1784729918706000,-6.762935,-1.672339,23.950354,3.900405,-0.312866,-1.920668,18
1784729918716000,37.095100,-10.913352,12.191699,3.281751,0.582585,-1.986425,19
1784729918726000,2.214153,3.487964,-1.173615,2.881103,2.596256,-2.040789,20
1784729918736000,0.801542,17.214172,7.248546,4.219098,1.630816,-1.654526,21
1784729918746000,-5.527544,9.693262,14.188967,3.707106,1.385506,-1.162755,22
1784729918756000,-10.004830,5.959470,10.612504,3.954602,1.049222,-1.595704,23
1784729918766000,-6.726499,9.382993,10.137063,4.217758,0.607398,-2.102465,24
1784729918776000,2.690661,14.093344,10.538424,4.120112,0.548495,-1.976609,25
1784729918786000,3.340301,17.849430,11.556060,3.558162,0.571140,-1.504735,26
1784729918796000,12.188354,28.387419,16.063614,2.579769,1.548686,-1.658467,27
1784729918806000,9.645654,11.456508,3.627118,0.319808,2.181985,-0.758248,28
1784729918816000,-9.346851,13.528835,13.773108,1.266331,2.474937,-0.772559,29
1784729918826000,-4.925793,7.317331,9.305723,-0.272395,1.011944,-0.601026,30
1784729918836000,-1.788901,11.049085,9.500875,0.297056,0.923295,-0.193984,31
1784729918846000,-2.933034,7.529145,9.341637,0.027234,0.375284,-0.065911,32
1784729918856000,0.726895,5.877309,8.455747,0.104792,0.265972,0.021913,33
1784729918866000,-0.049902,6.760202,8.183200,0.200847,0.160604,0.033095,34
1784729918876000,0.158094,6.732822,7.979097,0.175472,0.095361,0.079812,35
1784729918886000,0.713957,6.233483,7.950411,0.198860,0.033441,0.087763,36
1784729918896000,0.595030,6.559522,7.786993,0.220994,0.005533,0.091268,37
1784729918906000,0.769586,6.122221,7.888094,0.220561,-0.032214,0.091498,38
1784729918916000,0.830510,6.197240,7.728569,0.239023,-0.036838,0.074659,39
1784729918926000,0.814916,6.158581,7.666799,0.203199,-0.000067,0.026532,40
1784729918936000,1.106039,6.279171,7.474782,0.138663,0.079843,-0.059750,41
1784729918946000,1.034364,6.318141,7.465991,0.098610,0.078870,-0.113447,42
1784729918956000,1.024333,6.265522,7.471303,0.053394,0.082315,-0.154808,43
1784729918966000,0.971231,6.342167,7.390112,0.016042,0.061307,-0.182294,44
1784729918976000,0.536248,6.280172,7.540739,-0.012992,0.056773,-0.197756,45
1784729918986000,0.613015,6.017076,7.733082,-0.038431,0.032057,-0.204092,46
1784729918996000,0.537372,5.994499,7.830178,-0.050054,0.022924,-0.234774,47
1784729919006000,0.568176,5.902105,7.691449,-0.063545,-0.008525,-0.266358,48
1784729919016000,0.869491,5.803454,7.702036,-0.072944,-0.011293,-0.295516,49
1784729919026000,0.823306,6.033824,7.667557,-0.071094,-0.006797,-0.329185,50
1784729919036000,0.512877,6.094644,7.719651,-0.080621,0.011304,-0.341926,51
1784729919046000,0.599933,6.132389,7.746831,-0.039007,0.010228,-0.343194,52
1784729919056000,0.443141,6.268207,7.757783,-0.004570,-0.008332,-0.347966,53
1784729919066000,-0.004757,6.028054,7.790102,0.034231,-0.036470,-0.279137,54
1784729919076000,-0.007978,6.057540,7.885752,0.071875,-0.017872,-0.219632,55
1784729919086000,0.133541,5.950022,7.788597,0.098904,-0.017426,-0.186506,56
1784729919096000,0.345595,6.096499,7.760451,0.137441,-0.025215,-0.167407,57
1784729919106000,0.340181,6.072369,7.731960,0.176631,-0.012895,-0.159641,58
1784729919116000,0.417988,5.888386,7.588389,0.208070,-0.015974,-0.161783,59
1784729919126000,0.629644,5.839049,7.671819,0.266613,-0.023710,-0.170782,60
1784729919136000,0.467581,5.864934,7.726743,0.341138,-0.027986,-0.187022,61
1784729919146000,0.428188,5.683462,7.781311,0.453933,-0.027611,-0.225309,62
1784729919156000,0.526024,5.764673,7.865509,0.585924,-0.026442,-0.266611,63
1784729919166000,0.122183,5.524582,7.964239,0.778856,-0.049170,-0.272046,64
1784729919176000,0.282331,5.259157,7.939784,1.066489,-0.045010,-0.287327,65
1784729919186000,0.110102,5.616559,8.069159,1.364763,-0.003708,-0.295548,66
1784729919196000,-0.266473,5.575799,7.912173,1.680413,0.027063,-0.262404,67
1784729919206000,-0.621211,5.502839,7.975455,1.990618,0.005650,-0.179775,68
1784729919216000,-0.325057,5.299082,8.034768,2.301972,-0.063028,-0.087817,69
1784729919226000,-0.067125,5.458348,7.842971,2.657190,-0.136303,-0.035024,70
1784729919236000,0.507775,5.192531,7.635098,3.028258,-0.212959,-0.048113,71
1784729919246000,0.871873,5.138706,7.289934,3.493644,-0.214652,-0.111338,72
1784729919256000,0.909336,5.199903,7.178761,3.939936,-0.059828,-0.182615,73
1784729919266000,0.871595,5.856733,7.107603,4.272491,0.317611,-0.193430,74
1784729919276000,1.423786,5.286458,7.213608,4.591122,0.857585,-0.182550,75
1784729919286000,1.816013,5.747583,7.161390,4.995752,1.259187,-0.113700,76
1784729919296000,1.443246,7.004251,6.707724,5.520669,1.656759,-0.022960,77
1784729919306000,-0.432978,8.034016,9.444574,6.231236,1.642250,0.103716,78
1784729919316000,-3.173714,20.472599,7.064250,6.139134,0.272381,-1.066110,79
1784729919326000,-0.724826,18.207167,9.994821,7.819572,1.047649,-0.153654,80
1784729919336000,2.433780,9.205751,12.081097,8.311870,0.578856,-0.403458,81
1784729919346000,3.598706,14.289268,12.300806,8.940953,0.308243,-0.922545,82
1784729919356000,-0.598887,13.332124,11.110142,9.432571,0.305550,-1.137209,83
1784729919366000,4.614042,21.157236,15.082610,9.948408,0.041987,-1.351832,84
1784729919376000,7.341723,32.157898,15.261098,9.117356,-0.817585,-2.534988,85
1784729919386000,2.067439,24.115679,20.421816,6.473702,0.260314,-2.453738,86
1784729919396000,6.256970,10.857985,12.745450,3.893873,-0.576140,-1.736544,87
1784729919406000,-10.414604,5.239597,17.383129,3.490540,-0.957705,-1.218695,88
1784729919416000,22.393509,61.121132,56.198078,-0.735567,-4.201588,-1.453482,89
1784729919426000,11.850266,-9.543608,21.870424,-3.779430,-0.608766,-1.853687,90
1784729919436000,16.402838,-5.167883,17.397934,-3.677310,0.129441,-2.208765,91
1784729919446000,11.526400,-4.310565,12.209221,-3.413515,0.285683,-2.060737,92
1784729919456000,8.620133,1.620699,14.337438,-3.682338,0.003766,-1.499457,93
1784729919466000,7.934145,4.743559,14.919546,-4.331543,-0.441525,-0.832278,94
1784729919476000,8.012290,6.761976,14.281315,-5.171791,-0.786315,-0.273791,95
1784729919486000,7.788084,8.809181,13.249767,-6.012675,-0.887526,0.153632,96
1784729919496000,6.658038,10.657419,12.046277,-6.817080,-0.868390,0.460193,97
1784729919506000,4.572110,11.051006,10.709229,-7.525256,-0.905482,0.738698,98
1784729919516000,2.616337,11.045218,9.353912,-8.010783,-1.083638,1.023674,99
1784729919526000,1.424427,10.765865,8.295761,-8.258376,-1.352201,1.290544,100
1784729919536000,0.546373,10.878468,7.469687,-8.279459,-1.627625,1.528348,101
1784729919546000,-0.084620,11.314506,6.594532,-8.143875,-1.864162,1.693246,102
1784729919556000,-0.840359,12.343560,5.999672,-7.833510,-2.156812,1.837758,103
1784729919566000,-1.323111,13.353621,6.459589,-7.403771,-2.369573,1.923123,104
1784729919576000,-2.232893,15.522692,7.492513,-6.947303,-2.574106,1.949280,105
1784729919586000,-3.144064,17.077539,7.796859,-6.537522,-2.837669,1.965947,106
1784729919596000,-3.262798,15.788863,9.168264,-6.037706,-3.085660,1.946241,107
1784729919606000,-3.177588,17.050709,11.380857,-5.634992,-3.271135,1.806794,108
1784729919616000,-2.638938,18.082384,12.175131,-5.360880,-3.358191,1.665854,109
1784729919626000,-0.643332,21.896072,11.605831,-5.164907,-3.358644,1.725319,110
1784729919636000,-1.694204,16.645910,10.360434,-4.701093,-3.034171,2.089125,111
1784729919646000,2.434465,20.726351,11.659340,-4.239398,-2.332399,2.553173,112
1784729919656000,2.193033,25.457182,11.686902,-4.096057,-1.560236,3.130771,113
1784729919666000,-6.130701,25.554235,11.024430,-4.132690,-1.123398,3.980832,114
1784729919676000,-15.023855,26.988052,8.780088,-4.062174,-1.329192,4.969884,115
1784729919686000,-13.679059,28.716730,-1.221245,-4.014840,-1.863060,4.980727,116
1784729919696000,-11.178164,21.860003,-8.568124,-3.498834,-0.977595,4.418954,117
1784729919706000,-11.184407,23.518122,-13.432576,-2.739785,0.417180,3.498277,118
1784729919716000,-16.511530,25.724312,-15.668386,-1.981779,1.593540,2.458339,119
1784729919727000,-24.045607,27.454947,-16.205677,-1.241294,1.611838,1.535979,120
1784729919737000,-24.075909,20.518555,-14.522515,-0.285078,-0.713684,0.173875,121
1784729919747000,-11.907344,19.105072,-10.516240,0.900969,-1.281563,-0.518756,122
1784729919757000,0.037202,19.892433,-5.501842,1.393367,-0.411063,-1.128568,123
1784729919767000,-1.744869,15.415516,-2.842354,1.292689,0.654843,-1.055176,124
1784729919777000,-3.501152,3.653604,27.284519,4.066213,-2.195352,-2.066157,125
1784729919787000,39.498249,-7.341369,19.268511,3.918790,-0.122756,-2.596450,126
1784729919797000,4.064507,-5.112958,-1.796516,2.860714,2.231666,-2.857718,127
1784729919807000,3.309512,20.445694,7.753613,4.714937,1.355984,-2.520653,128
1784729919817000,-2.226549,10.497709,12.299378,3.797380,1.131325,-1.824391,129
1784729919827000,-4.102571,5.823881,7.411798,4.491786,1.078658,-1.775091,130
1784729919837000,-8.358523,11.004412,12.775067,4.786492,0.989910,-2.096708,131
1784729919847000,-2.357223,12.905087,10.118952,4.512372,0.508329,-2.047908,132
1784729919857000,10.132355,19.928043,13.361264,4.476716,0.388088,-1.844904,133
1784729919867000,21.511143,44.546101,11.173182,1.938904,3.782644,-0.738900,134
1784729919877000,-13.604797,-0.016894,5.069970,0.956625,3.364543,-0.739218,135
1784729919887000,-5.038395,18.326431,13.660636,-0.285251,0.759901,-0.688403,136
1784729919897000,-0.231616,6.005538,7.697827,0.762827,0.967633,-0.218542,137
1784729919907000,-5.583392,7.781730,10.351762,0.087030,0.621429,0.024399,138
1784729919917000,3.707496,6.365860,7.574381,0.361738,0.268104,0.036531,139
1784729919927000,-0.876488,7.125092,8.504299,0.499289,0.315110,0.017800,140
1784729919937000,1.495012,6.464425,7.735950,0.375941,0.153628,0.040688,141
1784729919947000,1.222361,6.856310,7.861785,0.388508,0.118081,0.003864,142
1784729919957000,0.824417,6.583350,8.066051,0.361633,0.059370,-0.000113,143
1784729919967000,0.945421,6.799742,7.636361,0.354518,0.026762,-0.033404,144
1784729919977000,1.085162,6.467068,7.569571,0.300278,0.026673,-0.065514,145
1784729919987000,0.185049,6.595494,7.586846,0.278677,0.046142,-0.059376,146
1784729919997000,0.534189,6.625144,7.495211,0.228057,0.013136,-0.011866,147
1784729920007000,0.638709,6.437585,7.557261,0.201705,-0.000908,-0.015049,148
1784729920017000,0.395851,6.314177,7.418034,0.140996,0.083130,-0.043806,149
1784729920027000,1.614565,6.603731,7.254132,0.085752,0.133691,-0.127946,150
1784729920037000,1.022663,6.541371,7.148409,0.001384,0.161205,-0.215166,151
1784729920047000,1.131282,6.167340,7.293159,-0.053746,0.140298,-0.258874,152
1784729920057000,1.090151,6.183107,7.432584,-0.110121,0.118741,-0.319629,153
1784729920067000,1.007123,5.911143,7.517185,-0.153986,0.080453,-0.391177,154
1784729920077000,1.149514,5.746826,7.525812,-0.162961,0.051355,-0.454331,155
1784729920087000,0.617073,6.121610,7.602937,-0.156890,0.059447,-0.497166,156
1784729920097000,0.805421,6.349557,7.536242,-0.185706,0.020938,-0.504961,157
1784729920107000,0.393275,6.196099,7.668016,-0.201838,0.038859,-0.483974,158
1784729920117000,0.046131,5.969345,7.693950,-0.160503,0.039984,-0.408960,159
1784729920127000,0.097487,6.075622,7.869683,-0.105064,0.018555,-0.338867,160
1784729920137000,-0.280934,6.160480,7.841178,-0.016726,0.021209,-0.263099,161
1784729920147000,-0.002475,6.158052,7.865796,0.028584,0.003081,-0.195511,162
1784729920157000,-0.066109,6.210443,7.732237,0.071404,-0.030573,-0.145394,163
1784729920167000,0.363332,6.214845,7.567728,0.076174,-0.051213,-0.125084,164
1784729920177000,0.623445,5.981493,7.464910,0.078949,-0.072661,-0.143146,165
1784729920187000,0.977740,5.820448,7.537426,0.093026,-0.070995,-0.178616,166
1784729920197000,0.990032,5.575910,7.558138,0.140366,-0.072676,-0.247203,167
1784729920207000,0.696496,5.609270,7.816167,0.233170,-0.065909,-0.316648,168
1784729920217000,0.520460,5.597336,7.929054,0.346286,-0.083093,-0.355905,169
1784729920227000,0.220780,5.792253,7.970457,0.476291,-0.059233,-0.355159,170
1784729920237000,-0.215404,5.672385,8.073606,0.649687,-0.053198,-0.318803,171
1784729920247000,0.633227,5.370824,7.919399,0.894163,-0.072662,-0.298500,172
1784729920257000,-0.312581,5.539036,8.075997,1.168843,0.037669,-0.290171,173
1784729920267000,-0.024408,5.636773,8.037483,1.439538,0.035200,-0.229889,174
1784729920277000,-0.212469,5.633208,7.963658,1.732667,0.075555,-0.164391,175
1784729920287000,-1.377413,6.877400,6.741015,2.050592,0.071517,-0.023851,176
1784729920297000,0.207131,4.786395,9.462848,2.122617,-0.137670,-0.000425,177
1784729920307000,1.584792,4.439425,7.672312,2.752455,-0.091371,-0.115942,178
1784729920317000,0.204684,5.101955,7.985168,3.174926,-0.113759,-0.176147,179
1784729920327000,0.299035,4.778069,7.746532,3.782665,-0.196975,-0.163535,180
1784729920337000,1.132865,4.998990,7.540938,4.296300,-0.001008,-0.167434,181
1784729920347000,1.501649,5.157516,7.390612,4.668147,0.541845,-0.176723,182
1784729920357000,1.129497,5.145143,7.185454,5.157665,1.090119,-0.116118,183
1784729920367000,1.202181,5.021110,8.042755,5.686947,1.483494,-0.011028,184
1784729920377000,1.540575,7.236505,9.138216,6.352515,1.758294,-0.020230,185
1784729920387000,1.642445,15.015420,10.025322,7.098572,1.424807,-0.567170,186
1784729920397000,1.711943,10.022602,18.074203,6.306778,1.163744,-0.437899,187
1784729920407000,1.760518,13.111509,15.536572,7.676377,0.738023,-0.876427,188
1784729920417000,4.017353,15.933264,14.069795,8.483049,0.698431,-1.412842,189
1784729920427000,-0.143779,13.561995,12.332906,8.857913,0.717678,-1.530596,190
1784729920437000,6.766500,19.551380,12.618792,9.283072,0.356918,-1.945757,191
1784729920447000,6.449739,27.025574,13.265180,7.791777,0.802946,-2.702338,192
1784729920457000,2.227497,17.658222,14.884225,6.914430,0.654578,-2.716786,193
1784729920467000,3.091395,8.403208,12.704555,5.002391,-0.082710,-1.957649,194
1784729920477000,-8.192423,6.489808,18.749619,4.268781,-0.873578,-1.218108,195
1784729920487000,17.085739,58.954723,51.430031,1.439574,-4.166910,-0.930643,196
1784729920497000,13.386074,3.893062,26.514156,-3.601373,-0.959054,-0.940919,197
1784729920507000,17.819149,3.417973,19.514881,-4.647240,0.349894,-1.390960,198
1784729920517000,12.862879,-3.338454,11.751299,-4.866234,1.405907,-1.820086,199
1784729920527000,7.429700,-1.383843,11.080559,-4.791516,1.786852,-1.941032,200
1784729920537000,3.669537,2.717540,12.372153,-5.036375,1.269076,-1.647133,201
1784729920547000,2.269613,5.572895,12.837437,-5.525191,0.253518,-1.152296,202
1784729920557000,2.965390,6.850016,11.946159,-6.140818,-0.695532,-0.656661,203
1784729920567000,4.611356,6.994353,10.138570,-6.693487,-1.209332,-0.292752,204
1784729920577000,6.015206,7.173109,8.133139,-7.026502,-1.265416,-0.058159,205
1784729920587000,5.977890,7.679437,7.133677,-7.184631,-1.109971,0.177942,206
1784729920597000,5.033218,8.298945,6.693037,-7.234867,-0.975986,0.498141,207
1784729920607000,3.827834,8.626692,6.689489,-7.148133,-1.010857,0.936933,208
1784729920617000,2.949110,9.553120,7.007385,-6.990224,-1.152196,1.409230,209
1784729920627000,2.191262,10.698407,7.240494,-6.785241,-1.335997,1.833458,210
1784729920637000,1.139034,11.840689,7.339079,-6.553493,-1.548316,2.191225,211
1784729920647000,0.313611,12.521062,7.519000,-6.182636,-1.736015,2.391658,212
1784729920657000,-0.484033,13.959814,8.502733,-5.792032,-1.933126,2.442418,213
1784729920667000,-0.771574,13.939033,9.244900,-5.446908,-2.046898,2.333447,214
1784729920677000,-1.554972,15.039132,11.174553,-4.992086,-2.135712,2.061796,215
1784729920687000,-3.074997,17.731920,14.234447,-4.708886,-2.394531,1.800072,216
1784729920697000,-3.519527,21.904190,17.033119,-4.725528,-2.847203,1.618984,217
1784729920707000,-3.916287,26.797983,17.516937,-4.879466,-3.158056,1.531265,218
1784729920717000,-1.696922,23.838676,15.655737,-5.650227,-3.435466,1.914199,219
1784729920727000,-1.535795,27.707336,11.654590,-5.609364,-3.087612,2.395830,220
1784729920737000,-6.733376,26.401726,8.038109,-5.354479,-2.623667,3.112502,221
1784729920748000,-12.004698,24.718945,4.559532,-4.963383,-3.159867,3.656599,222
1784729920758000,-10.618186,24.310257,-1.158926,-4.681206,-3.239514,3.726201,223
1784729920768000,-10.436795,24.093336,-7.119497,-4.045653,-2.412747,3.602243,224
1784729920778000,-9.936172,25.230116,-13.142314,-3.355539,-1.042484,3.236169,225
1784729920788000,-11.613419,27.534382,-19.696693,-2.537086,0.514020,2.623973,226
1784729920798000,-18.687330,25.410963,-22.100992,-1.580754,1.781936,1.985951,227
1784729920808000,-24.595589,19.048738,-18.221813,-0.339820,0.547205,0.771856,228
1784729920818000,-17.696638,18.206501,-10.289593,1.079803,-0.687629,-0.029830,229
1784729920828000,-5.894181,18.192371,-4.208697,1.522600,-0.623365,-0.666012,230
1784729920838000,-2.972826,18.503857,0.253506,1.415715,0.378418,-0.978912,231
1784729920848000,-6.345695,-3.467643,2.097714,2.719237,1.205085,-2.048905,232
1784729920858000,23.077383,-15.558520,4.155178,1.758792,-0.160716,-2.029082,233
1784729920868000,12.525824,6.369116,1.445405,3.265742,2.788766,-2.288311,234
1784729920878000,-0.035021,5.700010,6.135356,4.967596,2.193743,-1.337208,235
1784729920888000,-6.222197,15.421620,12.961090,4.634928,1.551844,-0.339471,236
1784729920898000,-14.089648,11.339354,13.226846,4.236640,1.417516,-1.096081,237
1784729920908000,-9.534663,13.551203,12.630810,4.208143,0.483443,-1.586743,238
1784729920918000,2.220917,19.212374,12.918778,3.713722,0.201862,-1.484519,239
1784729920928000,4.812658,18.279181,10.539469,2.932206,0.414225,-0.980513,240
1784729920938000,0.670726,14.009203,10.885251,2.287876,0.786520,-0.875211,241
1784729920948000,0.250015,18.140760,14.057519,1.293163,0.992437,-1.130264,242
1784729920958000,6.344416,10.673841,6.551309,0.226619,1.530936,-0.731407,243
1784729920968000,-2.984605,9.022185,10.845632,0.361397,1.525619,-0.646816,244
1784729920978000,-0.766244,7.331718,8.707187,-0.288520,0.734598,-0.665789,245
1784729920988000,0.871491,8.460829,9.139498,-0.032831,0.701600,-0.522903,246
1784729920998000,-0.682181,6.208282,8.637247,-0.283197,0.277888,-0.514345,247
1784729921008000,1.577465,6.175653,8.369119,-0.136563,0.272726,-0.525461,248
1784729921018000,0.266370,5.934000,8.404711,-0.057588,0.234391,-0.537844,249
1784729921028000,-0.198708,6.425016,8.058445,-0.035869,0.206999,-0.469782,250
1784729921038000,-0.403289,6.423011,8.181267,-0.013026,0.146438,-0.357798,251
1784729921048000,-0.268560,6.264554,8.328891,0.014098,0.113760,-0.276997,252
1784729921058000,-0.198468,6.215220,8.227596,0.073105,0.083722,-0.213852,253
1784729921068000,-0.029756,6.077988,8.034437,0.097380,0.068856,-0.171517,254
1784729921078000,0.514292,6.147858,7.786320,0.089840,0.038337,-0.142927,255
1784729921088000,0.622995,5.735703,7.964872,0.085020,0.065260,-0.175543,0
1784729921098000,0.206487,5.868771,7.922222,0.095739,0.070953,-0.177902,1
1784729921108000,-0.113779,5.877073,7.993996,0.088936,0.034897,-0.175967,2
1784729921118000,0.187965,5.917002,7.936527,0.094788,0.025322,-0.166946,3
1784729921128000,0.183163,5.869334,7.970470,0.090434,0.022150,-0.171651,4
1784729921138000,0.520576,5.683273,7.875748,0.070836,0.003659,-0.188265,5
1784729921148000,0.056466,5.845597,7.838389,0.079602,0.008049,-0.224191,6
1784729921158000,-0.001525,5.764797,7.863777,0.095290,0.030033,-0.175518,7
1784729921168000,0.334328,5.714046,7.911835,0.089727,-0.011065,-0.203985,8
1784729921178000,0.204338,5.672048,7.904485,0.105679,-0.002359,-0.220325,9
1784729921188000,0.100740,5.740812,7.996559,0.113200,-0.005580,-0.211904,10
1784729921198000,0.534786,5.826176,7.759551,0.130537,-0.017085,-0.226550,11
1784729921208000,-0.204180,5.699236,7.819352,0.129253,0.002677,-0.217574,12
1784729921218000,-0.019980,5.960961,7.776433,0.147523,-0.008945,-0.245572,13
1784729921228000,0.228694,5.772211,7.860299,0.166557,-0.021452,-0.249572,14
1784729921238000,-0.010771,5.760294,7.892689,0.188888,-0.048045,-0.281288,15
1784729921248000,0.195306,5.844181,7.821961,0.205485,-0.048746,-0.275711,16
1784729921258000,0.199985,5.724803,7.899385,0.251929,-0.049864,-0.274397,17
1784729921268000,-0.192330,5.652609,8.020707,0.309844,-0.038277,-0.261626,18
1784729921278000,0.243095,5.552621,8.019727,0.364161,-0.045924,-0.266282,19
1784729921288000,0.240348,5.758878,8.023097,0.466149,-0.019801,-0.293860,20
1784729921298000,-0.071968,5.556319,8.124990,0.569401,0.004879,-0.300112,21
1784729921308000,-0.324434,5.223071,8.135898,0.739053,0.024657,-0.280308,22
1784729921318000,-0.086070,5.270345,8.352381,0.973947,0.051598,-0.257441,23
1784729921328000,-0.278741,5.286004,8.278488,1.245606,0.079598,-0.242703,24
1784729921338000,-0.413669,5.329855,8.198747,1.534588,0.077638,-0.222762,25
1784729921348000,-0.897979,5.372556,8.172117,1.788157,0.059017,-0.148210,26
1784729921358000,-0.942102,5.405856,8.076728,2.060620,0.028199,-0.038712,27
1784729921368000,-2.767055,6.456464,6.414968,2.404138,0.084609,0.189043,28
1784729921378000,1.458691,2.751233,9.496965,2.849471,-0.295286,0.211631,29
1784729921388000,-0.275712,6.048393,7.597579,3.448206,0.011791,0.208229,30
1784729921398000,0.309939,4.988582,7.692183,3.816298,-0.303340,0.225942,31
1784729921408000,1.314122,5.285574,7.617650,4.295913,0.036286,0.177522,32
1784729921418000,1.480660,4.770020,6.823597,4.722080,0.498884,0.194414,33
1784729921428000,2.341829,5.593891,7.145073,5.220809,1.142944,0.211610,34
1784729921438000,0.943745,5.171692,7.973676,5.727818,1.410687,0.262889,35
1784729921448000,1.878003,8.429835,9.474448,6.461114,1.452115,0.035660,36
1784729921458000,1.278239,17.784435,9.829083,7.026515,0.585473,-1.252339,37
1784729921468000,4.187362,7.991749,20.312883,6.841078,1.175769,-0.672082,38
1784729921478000,3.487470,19.712217,14.731161,7.752243,0.893015,-1.529018,39
1784729921488000,4.556608,15.405937,12.115764,8.086705,1.214436,-2.031415,40
1784729921498000,0.682943,13.819638,11.216958,8.568135,1.462119,-2.272449,41
1784729921508000,3.812307,19.814556,11.357865,8.977558,1.309575,-2.473029,42
1784729921518000,7.575599,21.214998,16.302830,7.289016,1.381775,-2.878190,43
1784729921528000,4.064666,17.849035,15.133385,6.540254,1.352059,-2.876421,44
1784729921538000,1.669919,6.844595,10.834911,4.777597,0.755274,-2.128242,45
1784729921548000,-13.839090,11.224992,23.724752,5.352129,-1.037886,-1.542649,46
1784729921558000,13.731912,55.847340,45.715000,0.236721,-4.526424,-1.008471,47
1784729921568000,16.029226,6.082573,24.988623,-3.369824,-2.327501,-1.404305,48
1784729921578000,19.875660,1.138048,17.890814,-4.885975,0.037482,-1.948767,49
1784729921588000,13.075100,-3.950761,11.570439,-4.865396,1.409247,-2.540334,50
1784729921598000,5.960298,-2.280198,11.228539,-4.740140,1.503384,-2.401744,51
1784729921608000,1.936340,0.788037,12.550539,-4.681520,0.453435,-1.735063,52
1784729921618000,1.347901,4.801071,13.680590,-4.989030,-0.995417,-0.867453,53
1784729921628000,3.670431,7.082628,13.208300,-5.663449,-2.038952,-0.109870,54
1784729921638000,5.986410,7.608979,11.378452,-6.290116,-2.340580,0.403481,55
1784729921648000,6.207877,8.434695,9.778854,-6.761885,-2.144383,0.778298,56
1784729921658000,4.281900,8.166769,8.688429,-7.061344,-1.896305,1.134803,57
1784729921668000,1.981784,7.635109,7.782690,-7.136926,-1.899097,1.533617,58
1784729921678000,0.442112,7.959407,7.530243,-7.008741,-2.114424,1.948195,59
1784729921688000,-0.043403,9.113695,8.037086,-6.787412,-2.325773,2.277333,60
1784729921698000,-0.935236,10.861813,8.569719,-6.613281,-2.425617,2.509025,61
1784729921708000,-1.695986,11.816998,8.368280,-6.427551,-2.551324,2.649436,62
1784729921718000,-2.605780,12.685252,8.557707,-6.050267,-2.692388,2.638217,63
1784729921728000,-3.116874,14.073001,9.489632,-5.633984,-2.847934,2.539963,64
1784729921738000,-3.342662,13.678908,9.744892,-5.256946,-3.002559,2.359712,65
1784729921748000,-6.284726,10.565199,10.395173,-4.642378,-3.145057,2.216238,66
1784729921758000,-4.749174,16.480118,14.033492,-3.948180,-3.602962,2.124958,67
1784729921768000,-1.350269,23.721378,15.129243,-3.938860,-3.564202,1.998126,68
1784729921779000,-1.286895,23.527668,14.276960,-4.172950,-3.187138,2.230003,69
1784729921789000,-0.147810,27.383438,13.106921,-4.106638,-2.709499,2.757895,70
1784729921799000,-2.871978,28.013988,11.212410,-4.274564,-2.235965,3.462299,71
1784729921809000,-12.941113,27.721289,9.424155,-4.168728,-2.015549,4.342042,72
1784729921819000,-13.177004,29.359632,2.833882,-4.279061,-2.522501,4.676696,73
1784729921829000,-9.439452,25.857399,-5.910881,-4.362122,-1.686510,4.214972,74
1784729921839000,-11.014815,23.146208,-10.898279,-3.619716,-0.257893,3.512591,75
1784729921849000,-12.152180,23.863832,-13.966743,-3.089839,0.923317,2.715690,76
1784729921859000,-14.276389,25.101694,-17.330803,-2.444618,1.663341,1.790767,77
1784729921869000,-18.529448,21.631590,-17.266884,-1.590226,1.582660,0.842422,78
1784729921879000,-22.528946,18.215281,-13.369911,-0.440793,0.233283,0.112376,79
1784729921889000,-12.873688,16.877750,-8.732750,0.549705,-1.173520,-0.269868,80
1784729921899000,-3.732522,17.367290,-4.771556,0.903185,-0.598527,-0.817846,81
1784729921909000,-0.788212,17.395956,-1.605923,1.002303,0.248298,-0.957980,82
1784729921919000,-2.557199,-0.450997,-3.647219,0.790041,0.964396,-1.122742,83
1784729921929000,23.133085,-2.522711,13.849030,1.659605,-3.470811,-1.510571,84
1784729921939000,23.162951,-0.449881,11.366782,4.049939,2.776142,-2.274456,85
1784729921949000,1.339585,-7.025415,-1.201090,3.452378,2.491374,-2.339493,86
1784729921959000,0.641339,17.548111,11.492966,4.341373,1.689025,-1.558884,87
1784729921969000,-6.485981,10.515845,13.291993,3.908287,1.813784,-1.077103,88
1784729921979000,-11.706635,3.455139,8.907030,4.237260,1.453031,-1.715152,89
1784729921989000,-7.890987,15.672146,15.638097,4.398470,0.584017,-1.941229,90
1784729921999000,2.496308,21.921358,12.540991,3.435620,-0.013660,-1.553519,91
1784729922009000,7.975236,16.460958,9.877731,2.759627,0.486390,-1.078697,92
1784729922019000,9.980098,28.158396,15.350774,1.674536,1.979484,-0.966292,93
1784729922029000,-3.237839,3.871164,5.726501,0.063706,1.869620,-0.597666,94
1784729922039000,-3.809503,14.309118,13.440866,0.260977,0.789485,-0.497709,95
1784729922049000,-0.722063,5.114725,7.888686,0.252667,0.799237,-0.219136,96
1784729922059000,-3.463843,9.315022,9.590781,0.114747,0.595859,-0.003685,97
1784729922069000,1.261761,6.656110,8.082981,0.169153,0.240094,0.081737,98
1784729922079000,-0.106422,5.575548,8.757715,0.247664,0.230166,0.096937,99
1784729922089000,0.698271,6.865238,7.754548,0.277187,0.132649,0.118860,100
1784729922099000,0.830757,6.068552,7.839659,0.241287,0.076727,0.116628,101
1784729922109000,0.733427,6.324101,7.906364,0.275356,0.052615,0.081487,102
1784729922119000,0.823807,6.504167,7.721704,0.257966,-0.004733,0.063462,103
1784729922129000,0.751611,6.361573,7.805227,0.244019,0.006458,0.043905,104
1784729922139000,0.674011,6.209166,7.850576,0.255835,-0.034629,0.045004,105
1784729922149000,0.726838,6.285048,7.801348,0.248118,-0.064758,0.055456,106
1784729922159000,0.443043,6.177508,7.815913,0.236306,-0.053594,0.035861,107
1784729922169000,0.710975,6.231937,7.730102,0.211882,-0.045275,0.039448,108
1784729922179000,0.976877,6.142184,7.597437,0.180518,-0.058891,0.015012,109
1784729922189000,0.928683,6.156821,7.569307,0.157195,-0.024739,-0.007714,110
1784729922199000,1.087117,6.164982,7.576473,0.122686,-0.024569,-0.042311,111
1784729922209000,1.074172,6.113382,7.720747,0.104837,-0.009241,-0.083163,112
1784729922219000,0.548777,6.176646,7.833508,0.111686,0.001140,-0.104152,113
1784729922229000,0.403762,6.182162,7.744607,0.128207,-0.012267,-0.091563,114
1784729922239000,0.571550,6.266446,7.679236,0.128729,-0.024930,-0.078160,115
1784729922249000,0.690657,6.274465,7.615130,0.124361,-0.033908,-0.077496,116
1784729922259000,0.708877,6.154514,7.630081,0.104047,-0.027875,-0.087306,117
1784729922269000,0.786110,6.235167,7.609198,0.094338,-0.019925,-0.106386,118
1784729922279000,0.690696,6.231547,7.648968,0.080252,-0.020434,-0.126405,119
1784729922289000,0.858763,6.027187,7.456294,0.059594,-0.014139,-0.170888,120
1784729922299000,0.833548,6.079250,7.326956,0.017395,0.000189,-0.243309,121
1784729922309000,1.067786,6.019424,7.314313,-0.042263,0.002324,-0.339355,122
1784729922319000,1.133106,6.397290,7.262759,-0.086538,0.027372,-0.471554,123
1784729922329000,0.657607,6.191410,7.357522,-0.160683,0.000125,-0.541028,124
1784729922339000,0.798309,6.195731,7.475161,-0.191150,-0.032079,-0.561102,125
1784729922349000,0.321102,6.163249,7.674114,-0.197292,-0.029159,-0.538069,126
1784729922359000,0.232380,5.905177,7.682052,-0.178237,-0.041232,-0.487122,127
1784729922369000,0.176684,5.868505,7.846019,-0.086731,-0.039699,-0.413538,128
1784729922379000,-0.248472,5.844711,7.986649,0.018527,-0.021162,-0.318959,129
1784729922389000,-0.003898,5.875829,7.963627,0.121789,-0.028728,-0.233794,130
1784729922399000,0.365082,5.786368,8.006675,0.220983,-0.031233,-0.187531,131
1784729922409000,0.288899,5.835075,8.012254,0.356821,-0.026447,-0.168638,132
1784729922419000,0.310756,5.695395,7.955432,0.495864,-0.028026,-0.142295,133
1784729922429000,0.241489,5.432515,7.987069,0.715487,-0.016952,-0.133467,134
1784729922439000,-0.077841,5.665536,7.966217,0.940144,-0.005235,-0.102325,135
1784729922449000,-0.101296,5.699428,7.980698,1.171353,0.003878,-0.053679,136
1784729922459000,-0.222778,6.014600,7.635355,1.452624,0.008044,-0.011230,137
1784729922469000,0.734267,4.819162,8.697868,1.740530,-0.076948,-0.003051,138
1784729922479000,1.433072,5.138603,8.009744,2.220649,-0.107869,-0.107444,139
1784729922489000,0.424697,5.302509,8.152931,2.521905,-0.131902,-0.169216,140
1784729922499000,0.612933,5.489699,7.751191,2.853182,-0.206278,-0.160270,141
1784729922509000,0.859631,4.677172,7.782020,3.289363,-0.190197,-0.175066,142
1784729922519000,1.175943,4.917440,7.593571,3.828482,-0.066638,-0.216335,143
1784729922529000,1.211686,5.669822,7.568546,4.261295,0.306283,-0.232109,144
1784729922539000,0.263079,5.209059,7.614670,4.548059,0.751520,-0.149148,145
1784729922549000,1.487994,5.857409,8.008624,5.110928,0.908904,-0.043263,146
1784729922559000,1.585432,7.241462,8.548279,5.591654,1.140743,-0.069727,147
1784729922569000,0.695193,9.730193,9.377445,6.191062,1.059398,-0.305052,148
1784729922579000,0.136387,13.605047,10.670911,6.684143,0.712934,-0.617476,149
1784729922589000,1.005590,18.393543,10.154581,6.457827,0.253037,-1.044462,150
1784729922599000,1.665640,13.842796,9.032064,6.936651,0.340937,-1.255165,151
1784729922609000,1.537887,13.713844,9.609742,7.328497,0.091162,-1.339624,152
1784729922619000,7.224399,20.912241,10.384325,7.498662,0.200849,-1.852251,153
1784729922629000,5.062227,18.736431,13.785280,6.271119,0.685266,-2.436101,154
1784729922639000,1.840121,18.012325,12.928157,5.425463,0.132515,-2.498342,155
1784729922649000,2.852659,11.750114,9.656786,4.099311,-0.329884,-2.135905,156
1784729922659000,-1.365374,-1.305811,13.179786,3.027835,-1.370271,-1.423553,157
1784729922669000,6.409723,43.559467,37.901264,3.665653,-3.874149,-1.109642,158
1784729922679000,14.488110,4.140417,21.633627,-2.704245,-1.436745,-1.322181,159
1784729922689000,18.867531,1.224288,14.547050,-2.802491,-0.423074,-1.799087,160
1784729922699000,12.704605,-3.752938,9.912240,-3.287990,1.142071,-2.293692,161
1784729922709000,7.631522,-2.545720,9.811509,-3.155113,1.866115,-2.439571,162
1784729922719000,4.716499,0.407836,11.299860,-3.327845,1.631365,-2.145958,163
1784729922729000,3.635513,3.770045,12.647843,-3.739811,0.973735,-1.585781,164
1784729922739000,3.942519,5.549614,12.439046,-4.359149,0.259425,-0.931418,165
1784729922749000,5.119956,6.331662,11.347699,-4.957440,-0.198785,-0.336024,166
1784729922759000,6.218168,6.526012,9.782642,-5.471151,-0.318025,0.158769,167
1784729922769000,6.655533,6.247390,8.273884,-5.803928,-0.197636,0.587042,168
1784729922779000,5.791371,6.369144,7.404424,-5.936967,-0.025032,1.016786,169
1784729922789000,4.508073,6.954621,7.127151,-5.945957,0.024116,1.502133,170
1784729922799000,3.371131,8.108082,7.337099,-5.908461,-0.078730,2.006755,171
1784729922809000,2.586558,9.378742,7.631993,-5.836679,-0.244824,2.436451,172
1784729922820000,1.710998,11.003368,7.681417,-5.759835,-0.398334,2.717139,173
1784729922830000,1.115888,11.598026,7.575878,-5.649491,-0.579862,2.803738,174
1784729922840000,0.428666,12.221641,7.375693,-5.396285,-0.740911,2.686014,175
1784729922850000,-1.009197,11.875110,7.332477,-5.056847,-0.903670,2.492075,176
1784729922860000,-2.043852,13.107610,8.670906,-4.557612,-1.311119,2.278064,177
1784729922870000,-3.633041,15.389379,11.164670,-4.177815,-1.814621,2.028867,178
1784729922880000,-4.338908,16.956732,12.816799,-4.074502,-2.106136,1.912980,179
1784729922890000,-4.304919,20.009544,15.276155,-4.199673,-2.558495,1.662335,180
1784729922900000,-5.295515,21.535376,16.113638,-4.517444,-2.921057,1.426326,181
1784729922910000,-5.372936,24.722715,13.764014,-4.893301,-3.304099,1.330713,182
1784729922920000,-2.617887,18.686258,10.810032,-5.105648,-3.397933,1.290768,183
1784729922930000,-4.093724,19.864746,10.052370,-4.850983,-3.081951,1.249159,184
1784729922940000,-7.306199,19.001635,7.873905,-4.673549,-3.322326,1.332777,185
1784729922950000,-9.075525,19.294373,6.259801,-4.398412,-3.475407,1.317045,186
1784729922960000,-9.487350,19.258894,2.769100,-4.121380,-3.668002,1.216155,187
1784729922970000,-8.655992,17.477762,-0.449883,-3.707067,-3.414828,1.089916,188
1784729922980000,-8.962315,18.090733,-2.983853,-3.226937,-2.925588,1.133965,189
1784729922990000,-8.628242,19.574131,-7.023372,-2.747649,-2.205069,1.307370,190
1784729923000000,-7.802001,20.725050,-11.312176,-2.352704,-1.164576,1.325675,191
1784729923010000,-9.066986,16.538870,-14.267352,-1.732769,0.060859,0.888617,192
1784729923020000,-13.710147,12.681183,-11.909802,-0.608420,0.573371,0.146963,193
1784729923030000,-15.818484,12.093383,-5.656168,0.425395,0.075865,-0.635667,194
1784729923040000,-11.841117,13.228810,0.063553,0.796812,-0.672815,-1.172953,195
1784729923050000,-5.424443,13.489964,2.725560,0.705552,-0.637449,-1.691158,196
1784729923060000,-5.306163,11.911366,4.100283,0.547823,-0.389329,-2.108605,197
1784729923070000,-5.873120,9.851919,3.725696,0.617950,-0.387524,-2.304588,198
1784729923080000,7.246293,-0.298193,2.376010,0.755687,-0.377200,-3.062525,199
1784729923090000,6.458772,-5.415101,6.701916,0.651492,0.009602,-3.944814,200
1784729923100000,8.087995,4.010337,10.491219,2.223073,1.948353,-4.688974,201
1784729923110000,-2.172718,4.367812,6.828115,2.342749,2.212688,-4.823904,202
1784729923120000,-4.413167,11.172853,8.624060,1.745855,1.273362,-4.547925,203
1784729923130000,0.697101,6.182096,7.448021,1.823465,0.410656,-3.639947,204
1784729923140000,15.128789,5.785930,7.125896,2.898232,0.077330,-1.746682,205
1784729923150000,6.056096,15.739150,11.046757,3.319758,1.336947,-0.871755,206
1784729923160000,-7.085109,15.109869,12.497087,2.863981,1.142510,-0.849156,207
1784729923170000,-5.213955,9.197881,9.699092,2.463520,0.529816,-1.111559,208
1784729923180000,7.962647,12.928126,10.065825,2.319031,0.846983,-0.979086,209
1784729923190000,10.177353,21.179649,9.389966,1.045814,2.373244,-0.339640,210
1784729923200000,-6.326531,5.015081,8.087761,0.940319,2.516477,-0.217504,211
1784729923210000,-4.719829,12.265660,12.841331,0.127517,1.165061,-0.290555,212
1784729923220000,0.786298,5.648731,8.758285,0.408343,1.229992,-0.095878,213
1784729923230000,-5.359938,9.248074,9.149999,-0.033391,0.771850,-0.179739,214
1784729923240000,1.268812,7.423116,8.053490,0.040735,0.695073,-0.152330,215
1784729923250000,0.109338,6.814252,8.573270,0.033153,0.599508,-0.212983,216
1784729923260000,-0.658699,6.828023,8.153455,-0.019216,0.535428,-0.197802,217
1784729923270000,-0.567896,6.170862,8.247780,0.003575,0.427094,-0.142619,218
1784729923280000,-0.808320,6.501956,7.961580,-0.001868,0.279226,-0.089367,219
1784729923290000,-0.343796,5.917473,7.977971,0.009783,0.224728,-0.035904,220
1784729923300000,0.102589,6.013714,7.937113,0.035919,0.162307,-0.019462,221
1784729923310000,-0.445341,6.204232,7.709180,0.049261,0.090051,0.010068,222
1784729923320000,-0.259094,5.992164,7.803722,0.055326,0.070627,0.051687,223
1784729923330000,0.316288,5.986759,7.799989,0.052763,0.040816,0.043373,224
1784729923340000,0.234372,5.877584,7.849886,0.027645,0.057977,0.020779,225
1784729923350000,0.462560,6.239526,7.796021,0.014149,0.010714,0.006894,226
1784729923360000,0.293075,6.206842,7.698174,0.018599,-0.007008,-0.008019,227
1784729923370000,0.052148,5.740929,7.949377,0.001523,0.009550,-0.026485,228
1784729923380000,0.305548,5.833583,7.825186,-0.012496,0.010673,-0.041713,229
1784729923390000,0.396862,5.842379,7.833346,-0.012757,0.000987,-0.056589,230
1784729923400000,0.238653,5.777083,7.884069,-0.008538,0.007216,-0.068971,231
1784729923410000,0.089188,5.744656,7.848198,0.001582,0.000746,-0.063778,232
1784729923420000,0.074636,5.572950,7.959813,0.020799,-0.011619,-0.049643,233
1784729923430000,0.077157,5.741240,8.025650,0.051739,-0.017300,-0.045359,234
1784729923440000,0.008794,5.793711,7.896952,0.064469,-0.031227,-0.037501,235
1784729923450000,0.003122,5.736050,7.873493,0.076242,-0.039259,-0.025393,236
1784729923460000,0.971841,5.311962,8.178256,0.081990,-0.066722,-0.059477,237
1784729923470000,-0.732638,6.841674,7.282583,0.122748,-0.022830,-0.091404,238
1784729923480000,0.328789,5.589660,7.946332,0.114933,-0.089921,-0.048189,239
1784729923490000,0.182613,5.745004,8.019264,0.153659,-0.053827,-0.060829,240
1784729923500000,-0.167446,5.982049,7.850335,0.181334,-0.082175,-0.036613,241
1784729923510000,-0.096889,5.880477,7.821261,0.210229,-0.116741,0.010023,242
1784729923520000,-0.360788,5.854234,7.830165,0.261570,-0.175287,0.086811,243
1784729923530000,-0.273548,5.911158,7.857207,0.319374,-0.234925,0.170426,244
1784729923540000,-0.203123,5.876309,7.770176,0.373795,-0.247343,0.235150,245
1784729923550000,-0.011337,5.788626,7.830220,0.447195,-0.201809,0.262383,246
1784729923560000,0.375217,6.010795,7.885171,0.476490,-0.179157,0.283067,247
1784729923570000,0.593219,6.243701,7.880277,0.446835,-0.156877,0.227980,248
1784729923580000,0.450770,6.455698,7.832990,0.447044,-0.130259,0.164868,249
1784729923590000,0.445032,6.431400,7.780551,0.412262,-0.140310,0.114865,250
1784729923600000,0.854290,6.344813,7.607407,0.356833,-0.107281,0.032432,251
1784729923610000,0.722886,6.216207,7.557577,0.313254,-0.077482,-0.035789,252
1784729923620000,0.459765,6.405059,7.469135,0.293091,-0.079654,-0.074362,253
1784729923630000,0.364368,6.248778,7.620168,0.303336,-0.105943,-0.087193,254
1784729923640000,0.268808,6.397753,7.539096,0.323482,-0.128968,-0.074612,255
1784729923650000,0.186520,6.350407,7.516703,0.343361,-0.141768,-0.047149,0
1784729923660000,0.086388,6.294393,7.600029,0.387835,-0.175930,0.008811,1
1784729923670000,-0.127873,6.282888,7.723062,0.462350,-0.218791,0.089362,2
1784729923680000,-0.194311,6.341128,7.733219,0.544359,-0.297038,0.212667,3
1784729923690000,-0.111743,6.565143,7.648964,0.626241,-0.372330,0.373301,4
1784729923700000,-0.384980,6.524808,7.686849,0.676953,-0.420094,0.534862,5
1784729923710000,0.490837,6.396441,7.645983,0.621416,-0.361656,0.572317,6
1784729923720000,0.430888,6.579267,6.979697,0.605571,-0.338662,0.562860,7
1784729923730000,0.703522,6.194676,7.203519,0.674998,-0.161633,0.468286,8
1784729923740000,1.278240,6.341596,7.040630,0.724886,-0.143943,0.365396,9
1784729923750000,1.551286,6.529730,6.881938,0.779913,-0.190128,0.262792,10
1784729923760000,1.654086,6.534649,7.033669,0.754802,-0.209520,0.123046,11
1784729923770000,1.559168,6.850939,6.879544,0.711867,-0.271949,-0.041204,12
1784729923780000,1.408380,7.058903,6.928220,0.599602,-0.306148,-0.177711,13
1784729923790000,1.194726,7.338741,6.886302,0.508056,-0.378632,-0.280218,14
1784729923800000,0.802439,7.206779,6.696663,0.360098,-0.417698,-0.350442,15
1784729923810000,0.790757,6.995863,6.693541,0.225236,-0.478732,-0.420236,16
1784729923821000,0.908203,7.363372,6.602960,0.125036,-0.540237,-0.493311,17
1784729923831000,0.344618,7.054951,6.996773,0.065741,-0.657112,-0.575858,18
1784729923841000,0.713359,6.891270,6.719386,-0.000890,-0.737954,-0.686228,19
1784729923851000,0.396229,6.977533,6.967811,-0.069286,-0.917749,-0.805585,20
1784729923861000,-0.089020,6.681011,7.116057,-0.183014,-1.009260,-0.862238,21
1784729923871000,-0.393406,7.055075,7.390996,-0.124323,-0.983574,-0.948260,22
1784729923881000,-0.662896,6.673176,7.953413,-0.202591,-1.253867,-1.096249,23
1784729923891000,1.560824,6.985092,6.193525,-0.214837,-1.322388,-1.174050,24
1784729923901000,-0.282960,6.741483,7.271811,-0.301471,-1.373354,-1.237293,25
1784729923911000,1.690028,6.077557,7.539378,-0.295093,-1.633841,-1.419924,26
