time,accel_x,accel_y,accel_z,gyro_x,gyro_y,gyro_z,frame_number
1784729908300000,0.794639,9.769126,0.361143,-0.013570,-0.040750,0.003747,0
1784729908310000,0.790100,9.764381,0.351401,-0.012416,-0.041911,0.005855,1
1784729908320000,0.795005,9.774010,0.346767,-0.012535,-0.039034,0.004764,2
1784729908330000,0.804608,9.769228,0.347004,-0.012526,-0.039040,0.005293,3
1784729908340000,0.804724,9.774055,0.342224,-0.012022,-0.037334,0.006849,4
1784729908350000,0.804491,9.764403,0.351784,-0.011477,-0.036774,0.008418,5
1784729908360000,0.799703,9.759600,0.351637,-0.012547,-0.036789,0.008965,6
1784729908370000,0.790375,9.750051,0.341748,-0.012634,-0.033374,0.011039,7
1784729908380000,0.799603,9.745181,0.356380,-0.011578,-0.032231,0.012063,8
1784729908390000,0.809189,9.749992,0.356654,-0.012251,-0.028230,0.012555,9
1784729908400000,0.794773,9.764359,0.356327,-0.010769,-0.025328,0.010378,10
1784729908410000,0.794897,9.764388,0.351528,-0.009778,-0.023582,0.008753,11
1784729908420000,0.799944,9.764454,0.342060,-0.008432,-0.017791,0.004429,12
1784729908430000,0.799569,9.764366,0.356454,-0.006521,-0.012014,0.001681,13
1784729908440000,0.790100,9.764381,0.351401,-0.007197,-0.009129,-0.000457,14
1784729908450000,0.794906,9.759592,0.351510,-0.005698,-0.006239,-0.001576,15
1784729908460000,0.809047,9.759557,0.361489,-0.004668,-0.005078,-0.002138,16
1784729908470000,0.808681,9.754674,0.375866,-0.004677,-0.005072,-0.002666,17
1784729908480000,0.808922,9.759528,0.366288,-0.003668,-0.003339,-0.003234,18
1784729908490000,0.813960,9.764389,0.356837,-0.003619,-0.004491,-0.002692,19
1784729908500000,0.804350,9.773967,0.356619,-0.002102,-0.001613,-0.002755,20
1784729908510000,0.799445,9.764338,0.361253,-0.002123,-0.001040,-0.002761,21
1784729908520000,0.813844,9.759564,0.361617,-0.002163,0.000107,-0.002775,22
1784729908530000,0.809047,9.759557,0.361489,-0.000517,-0.000460,-0.002269,23
1784729908540000,0.813736,9.749943,0.366378,-0.001117,0.001255,-0.002279,24
1784729908550000,0.804017,9.749898,0.370921,-0.002224,0.001826,-0.002795,25
1784729908560000,0.804250,9.759549,0.361362,-0.000029,0.001258,-0.001770,26
1784729908571000,0.799569,9.764366,0.356454,-0.002236,0.002393,-0.002273,27
1784729908581000,0.808764,9.778684,0.371160,-0.001125,0.001261,-0.002808,28
1784729908591000,0.804125,9.759521,0.366160,-0.001117,0.001255,-0.002279,29
1784729908601000,0.794656,9.759534,0.361106,-0.000041,0.001825,-0.001248,30
1784729908611000,0.808939,9.749935,0.366251,-0.001154,0.001840,-0.003343,31
1784729908621000,0.818524,9.754746,0.366525,-0.000070,0.002404,-0.001783,32
1784729908631000,0.808914,9.764324,0.366306,-0.000618,0.002406,-0.002302,33
1784729908641000,0.809163,9.764381,0.356710,-0.000615,0.001845,-0.003352,34
1784729908651000,0.804383,9.754782,0.356545,-0.000635,0.002418,-0.003359,35
1784729908661000,0.799320,9.764309,0.366051,-0.001175,0.002413,-0.003350,36
1784729908671000,0.809147,9.773974,0.356747,-0.001157,0.002402,-0.002293,37
1784729908681000,0.808914,9.764324,0.366306,-0.001705,0.002403,-0.002811,38
1784729908691000,0.813836,9.764360,0.361636,-0.001128,0.001823,-0.001757,39
1784729908701000,0.809180,9.754789,0.356673,-0.001117,0.001255,-0.002279,40
1784729908711000,0.813711,9.764332,0.366434,-0.002187,0.001241,-0.001731,41
1784729908721000,0.804366,9.764374,0.356582,-0.001627,0.000672,-0.001734,42
1784729908731000,0.804250,9.759549,0.361362,-0.002703,0.000102,-0.002765,43
1784729908741000,0.804375,9.759578,0.356563,-0.002604,-0.002202,-0.001681,44
1784729908751000,0.804267,9.749956,0.361325,-0.003152,-0.002200,-0.002200,45
1784729908761000,0.814201,9.769243,0.347260,-0.002584,-0.002775,-0.001675,46
1784729908771000,0.808914,9.764324,0.366306,-0.002584,-0.002775,-0.001675,47
1784729908781000,0.804616,9.764432,0.346986,-0.002045,-0.002771,-0.001684,48
1784729908791000,0.804375,9.759578,0.356563,-0.004729,-0.003359,-0.002158,49
1784729908801000,0.804117,9.764317,0.366179,-0.003642,-0.003356,-0.001649,50
1784729908811000,0.813728,9.754740,0.366397,-0.005248,-0.003936,-0.002141,51
1784729908821000,0.809555,9.754877,0.342278,-0.004680,-0.004511,-0.001616,52
1784729908831000,0.803984,9.769083,0.370995,-0.004750,-0.002786,-0.002165,53
1784729908841000,0.804242,9.764345,0.361380,-0.004761,-0.002219,-0.001643,54
1784729908851000,0.808806,9.754703,0.371067,-0.003082,-0.003925,-0.001652,55
1784729908861000,0.799337,9.754717,0.366014,-0.003172,-0.001627,-0.002207,56
1784729908871000,0.808689,9.749877,0.375847,-0.001572,-0.001602,-0.003293,57
1784729908881000,0.799345,9.749920,0.365995,-0.001035,-0.001037,-0.002252,58
1784729908891000,0.813594,9.759506,0.371214,0.000542,0.000122,-0.002295,59
1784729908901000,0.813594,9.759506,0.371214,-0.000018,0.000691,-0.002292,60
1784729908911000,0.808789,9.764295,0.371104,0.000060,-0.001040,-0.001215,61
1784729908921000,0.804134,9.754725,0.366141,-0.000496,-0.001033,-0.002262,62
1784729908931000,0.804383,9.754782,0.356545,-0.000456,-0.002179,-0.002248,63
1784729908941000,0.804225,9.773938,0.361417,-0.000427,-0.002758,-0.001713,64
1784729908951000,0.804366,9.764374,0.356582,-0.001476,-0.003345,-0.001159,65
1784729908961000,0.803867,9.764258,0.375775,-0.000351,-0.003928,0.000414,66
1784729908971000,0.799561,9.769162,0.356473,-0.000409,-0.002770,-0.000656,67
1784729908981000,0.799337,9.754717,0.366014,-0.001520,-0.001638,-0.000122,68
1784729908991000,0.804242,9.764345,0.361380,-0.000430,-0.002197,-0.000663,69
1784729909001000,0.808922,9.759528,0.366288,-0.000998,-0.001622,-0.001189,70
1784729909011000,0.804009,9.754695,0.370940,-0.000488,-0.001039,-0.001733,71
1784729909021000,0.804142,9.749928,0.366123,0.001081,0.000126,-0.002304,72
1784729909031000,0.804000,9.759491,0.370958,0.000464,0.001853,-0.003372,73
1784729909041000,0.794648,9.764330,0.361125,-0.000113,0.002434,-0.004426,74
1784729909051000,0.804375,9.759578,0.356563,-0.001183,0.002419,-0.003878,75
1784729909061000,0.804508,9.754811,0.351747,-0.001201,0.002431,-0.004935,76
1784729909071000,0.804375,9.759578,0.356563,-0.001668,0.001818,-0.001748,77
1784729909081000,0.809288,9.764411,0.351912,-0.004384,0.002370,-0.001706,78
1784729909091000,0.799711,9.754804,0.351619,-0.003825,0.001801,-0.001709,79
1784729909101000,0.809155,9.769177,0.356728,-0.004921,0.001805,-0.002747,80
1784729909111000,0.808789,9.764295,0.371104,-0.003363,0.001859,-0.006475,81
1784729909121000,0.794781,9.759562,0.356308,-0.000899,0.008190,-0.007126,82
1784729909131000,0.799436,9.769134,0.361271,0.001470,0.016264,-0.009910,83
1784729909141000,0.789726,9.764295,0.365795,0.005393,0.026631,-0.011694,84
1784729909151000,0.789743,9.754703,0.365758,0.007188,0.036403,-0.012904,85
1784729909161000,0.799096,9.749862,0.375592,0.009185,0.040443,-0.014046,86
1784729909171000,0.803992,9.764287,0.370977,0.007646,0.038699,-0.012940,87
1784729909181000,0.813586,9.764302,0.371232,0.007791,0.035804,-0.010264,88
1784729909191000,0.803867,9.764258,0.375775,0.008463,0.033481,-0.007076,89
1784729909201000,0.790367,9.754848,0.341767,0.008071,0.030020,-0.005441,90
1784729909211000,0.794773,9.764359,0.356327,0.007129,0.027122,-0.003274,91
1784729909221000,0.794906,9.759592,0.351510,0.007187,0.025964,-0.002203,92
1784729909231000,0.809430,9.754848,0.347076,0.005813,0.019074,-0.002094,93
1784729909241000,0.804616,9.764432,0.346986,0.003928,0.011601,-0.001439,94
1784729909251000,0.804508,9.754811,0.351747,0.001942,0.006994,-0.000819,95
1784729909261000,0.813943,9.773982,0.356875,0.001127,-0.000465,-0.000712,96
1784729909271000,0.804874,9.759694,0.337370,-0.001407,-0.005071,-0.000610,97
1784729909281000,0.799586,9.754774,0.356417,-0.001314,-0.007930,-0.001105,98
1784729909291000,0.799711,9.754804,0.351619,-0.001183,-0.011375,-0.000536,99
1784729909301000,0.804516,9.750014,0.351728,-0.003320,-0.011965,-0.000491,100
1784729909311000,0.804258,9.754753,0.361343,-0.003746,-0.015401,-0.000969,101
1784729909321000,0.795031,9.759621,0.346711,-0.005153,-0.021151,-0.000345,102
1784729909331000,0.804267,9.749956,0.361325,-0.008809,-0.024058,0.000813,103
1784729909341000,0.794523,9.764301,0.365923,-0.010383,-0.025778,-0.000195,104
1784729909351000,0.799720,9.750007,0.351600,-0.011465,-0.025225,0.000875,105
1784729909361000,0.794906,9.759592,0.351510,-0.011517,-0.023512,0.001383,106
1784729909371000,0.789859,9.759527,0.360978,-0.011067,-0.021210,0.000818,107
1784729909381000,0.794923,9.749999,0.351473,-0.009061,-0.017175,0.000204,108
1784729909391000,0.799462,9.754745,0.361215,-0.007124,-0.011415,-0.000959,109
1784729909401000,0.799569,9.764366,0.356454,-0.006214,-0.007377,-0.002610,110
1784729909411000,0.804383,9.754782,0.356545,-0.005277,-0.003357,-0.002677,111
1784729909421000,0.809305,9.754819,0.351874,-0.003729,-0.001619,-0.003254,112
1784729909431000,0.794789,9.754766,0.356289,-0.003271,0.000677,-0.003291,113
1784729909441000,0.784954,9.749898,0.365612,-0.003288,0.000689,-0.004348,114
1784729909451000,0.794665,9.754738,0.361088,-0.003251,0.000104,-0.003284,115
1784729909461000,0.804516,9.750014,0.351728,-0.004326,-0.000466,-0.004315,116
1784729909471000,0.804483,9.769199,0.351802,-0.004268,-0.001624,-0.003245,117
1784729909481000,0.794656,9.759534,0.361106,-0.004718,-0.003926,-0.002680,118
1784729909491000,0.799703,9.759600,0.351637,-0.006243,-0.006798,-0.003146,119
1784729909501000,0.794265,9.769039,0.375538,-0.005605,-0.009098,-0.002071,120
1784729909511000,0.804366,9.764374,0.356582,-0.006611,-0.011393,-0.002554,121
1784729909521000,0.794906,9.759592,0.351510,-0.006524,-0.013130,-0.000948,122
1784729909531000,0.804491,9.764403,0.351784,-0.006512,-0.013697,-0.001470,123
1784729909541000,0.799586,9.754774,0.356417,-0.005944,-0.014272,-0.000944,124
1784729909551000,0.799578,9.759570,0.356436,-0.006002,-0.013114,-0.002015,125
1784729909561000,0.794789,9.754766,0.356289,-0.006011,-0.013108,-0.002543,126
1784729909571000,0.794764,9.769155,0.356345,-0.004976,-0.011392,-0.001526,127
1784729909581000,0.799337,9.754717,0.366014,-0.005005,-0.010813,-0.002061,128
1784729909591000,0.808914,9.764324,0.366306,-0.004457,-0.010815,-0.001542,129
1784729909602000,0.804250,9.759549,0.361362,-0.004486,-0.010236,-0.002077,130
1784729909612000,0.808797,9.759499,0.371086,-0.002877,-0.010217,-0.002635,131
1784729909622000,0.799328,9.759513,0.366032,-0.003439,-0.009087,-0.001581,132
1784729909632000,0.794648,9.764330,0.361125,-0.003946,-0.010232,-0.002087,133
1784729909642000,0.799187,9.769075,0.370868,-0.004967,-0.011398,-0.000997,134
1784729909652000,0.804009,9.754695,0.370940,-0.004387,-0.012540,-0.000993,135
1784729909662000,0.794773,9.764359,0.356327,-0.005996,-0.012559,-0.000436,136
1784729909672000,0.799220,9.749890,0.370793,-0.004898,-0.013124,-0.000449,137
1784729909682000,0.799462,9.754745,0.361215,-0.003868,-0.011963,-0.001010,138
1784729909692000,0.799320,9.764309,0.366051,-0.003900,-0.010823,-0.000495,139
1784729909702000,0.804383,9.754782,0.356545,-0.004439,-0.010827,-0.000485,140
1784729909712000,0.804125,9.759521,0.366160,-0.004468,-0.010248,-0.001020,141
1784729909722000,0.789726,9.764295,0.365795,-0.005538,-0.010262,-0.000472,142
1784729909732000,0.794557,9.745116,0.365849,-0.005608,-0.008537,-0.001021,143
1784729909742000,0.804508,9.754811,0.351747,-0.005657,-0.007385,-0.001563,144
1784729909752000,0.799578,9.759570,0.356436,-0.005147,-0.006802,-0.002108,145
1784729909762000,0.795022,9.764417,0.346730,-0.005208,-0.005083,-0.002128,146
1784729909772000,0.804134,9.754725,0.366141,-0.004738,-0.003353,-0.002686,147
1784729909782000,0.789751,9.749906,0.365740,-0.005318,-0.002211,-0.002690,148
1784729909792000,0.803992,9.764287,0.370977,-0.004289,-0.001051,-0.003251,149
1784729909802000,0.804117,9.764317,0.366179,-0.002682,-0.000471,-0.002758,150
1784729909812000,0.799220,9.749890,0.370793,-0.003242,0.000098,-0.002756,151
1784729909822000,0.799328,9.759513,0.366032,-0.003851,0.001819,-0.003295,152
1784729909832000,0.799195,9.764279,0.370849,-0.002244,0.002399,-0.002802,153
1784729909842000,0.799561,9.769162,0.356473,-0.003340,0.002402,-0.003839,154
1784729909852000,0.789734,9.759499,0.365777,-0.003335,0.002958,-0.002261,155
1784729909862000,0.804125,9.759521,0.366160,-0.002821,0.002980,-0.003856,156
1784729909872000,0.804009,9.754695,0.370940,-0.002276,0.003539,-0.002287,157
1784729909882000,0.799462,9.754745,0.361215,-0.002253,0.002405,-0.003330,158
1784729909892000,0.799453,9.759542,0.361234,-0.002224,0.001826,-0.002795,159
1784729909902000,0.799087,9.754659,0.375610,-0.001146,0.001834,-0.002814,160
1784729909912000,0.804117,9.764317,0.366179,-0.002184,0.000680,-0.002782,161
1784729909922000,0.804134,9.754725,0.366141,-0.001644,0.000684,-0.002791,162
1784729909932000,0.804125,9.759521,0.366160,-0.002682,-0.000471,-0.002758,163
1784729909942000,0.808948,9.745139,0.366232,-0.003254,0.000665,-0.002234,164
1784729909952000,0.794540,9.754709,0.365886,-0.002674,-0.000477,-0.002230,165
1784729909962000,0.799328,9.759513,0.366032,-0.002674,-0.000477,-0.002230,166
1784729909972000,0.794407,9.759476,0.370703,-0.002662,-0.001044,-0.002752,167
1784729909982000,0.813478,9.754682,0.375993,-0.002674,-0.000477,-0.002230,168
1784729909992000,0.804125,9.759521,0.366160,-0.002674,-0.000477,-0.002230,169
1784729910002000,0.789726,9.764295,0.365795,-0.002674,-0.000477,-0.002230,170
1784729910012000,0.804491,9.764403,0.351784,-0.003242,0.000098,-0.002756,171
1784729910022000,0.813836,9.764360,0.361636,-0.003245,0.000659,-0.001705,172
1784729910032000,0.804366,9.764374,0.356582,-0.004320,0.000090,-0.002736,173
1784729910042000,0.799178,9.773872,0.370886,-0.002146,0.000095,-0.001718,174
1784729910052000,0.794540,9.754709,0.365886,-0.003242,0.000098,-0.002756,175
1784729910062000,0.799578,9.759570,0.356436,-0.002674,-0.000477,-0.002230,176
1784729910072000,0.804250,9.759549,0.361362,-0.002682,-0.000471,-0.002758,177
1784729910082000,0.799303,9.773902,0.366088,-0.002143,-0.000466,-0.002768,178
1784729910092000,0.803867,9.764258,0.375775,-0.002694,0.000096,-0.002237,179
1784729910102000,0.794631,9.773923,0.361162,-0.003201,-0.001048,-0.002742,180
1784729910112000,0.803892,9.749869,0.375719,-0.002665,-0.000483,-0.001702,181
1784729910122000,0.799328,9.759513,0.366032,-0.002114,-0.001045,-0.002233,182
1784729910132000,0.789976,9.764352,0.356199,-0.002682,-0.000471,-0.002758,183
1784729910142000,0.804134,9.754725,0.366141,-0.002653,-0.001050,-0.002223,184
1784729910152000,0.804267,9.749956,0.361325,-0.002645,-0.001056,-0.001695,185
1784729910162000,0.804026,9.745102,0.370902,-0.003193,-0.001054,-0.002214,186
1784729910172000,0.794665,9.754738,0.361088,-0.003720,-0.001625,-0.002726,187
1784729910182000,0.794923,9.749999,0.351473,-0.003662,-0.002783,-0.001655,188
1784729910192000,0.804358,9.769170,0.356601,-0.004210,-0.002782,-0.002174,189
1784729910202000,0.809297,9.759615,0.351893,-0.004202,-0.002788,-0.001646,190
1784729910212000,0.794656,9.759534,0.361106,-0.003752,-0.000485,-0.002211,191
1784729910222000,0.799462,9.754745,0.361215,-0.003752,-0.000485,-0.002211,192
1784729910232000,0.799470,9.749949,0.361197,-0.002703,0.000102,-0.002765,193
1784729910242000,0.794415,9.754680,0.370684,-0.001754,0.003555,-0.003353,194
1784729910252000,0.799453,9.759542,0.361234,0.000275,0.006456,-0.005011,195
1784729910262000,0.794398,9.764272,0.370721,0.001255,0.008768,-0.006114,196
1784729910272000,0.799586,9.754774,0.356417,0.002273,0.010496,-0.006153,197
1784729910282000,0.789718,9.769091,0.365814,0.001186,0.010493,-0.006663,198
1784729910292000,0.794789,9.754766,0.356289,0.000707,0.008770,-0.006633,199
1784729910302000,0.789734,9.759499,0.365777,0.000759,0.007057,-0.007141,200
1784729910312000,0.794906,9.759592,0.351510,-0.000229,0.004750,-0.006567,201
1784729910322000,0.799694,9.764396,0.351656,-0.001227,0.002449,-0.006520,202
1784729910332000,0.794673,9.749941,0.361069,-0.001693,0.000158,-0.007012,203
1784729910342000,0.804392,9.749985,0.356526,-0.003242,-0.001580,-0.006435,204
1784729910352000,0.789976,9.764352,0.356199,-0.004778,-0.003885,-0.006379,205
1784729910362000,0.799578,9.759570,0.356436,-0.005170,-0.007345,-0.004744,206
1784729910372000,0.794914,9.754796,0.351491,-0.005121,-0.008497,-0.004202,207
1784729910382000,0.804242,9.764345,0.361380,-0.006669,-0.010235,-0.003624,208
1784729910392000,0.799578,9.759570,0.356436,-0.008156,-0.013692,-0.003026,209
1784729910402000,0.794773,9.764359,0.356327,-0.008107,-0.014844,-0.002485,210
1784729910412000,0.789842,9.769119,0.361016,-0.009655,-0.016582,-0.001907,211
1784729910422000,0.804250,9.759549,0.361362,-0.011204,-0.018320,-0.001329,212
1784729910432000,0.804242,9.764345,0.361380,-0.012184,-0.020633,-0.000226,213
1784729910442000,0.794548,9.749912,0.365867,-0.011604,-0.021775,-0.000222,214
1784729910452000,0.804134,9.754725,0.366141,-0.011601,-0.022336,-0.001273,215
1784729910462000,0.794773,9.764359,0.356327,-0.010542,-0.021755,-0.001299,216
1784729910472000,0.799445,9.764338,0.361253,-0.011577,-0.023470,-0.002316,217
1784729910482000,0.804009,9.754695,0.370940,-0.011586,-0.023465,-0.002845,218
1784729910492000,0.794781,9.759562,0.356308,-0.012624,-0.024619,-0.002812,219
1784729910502000,0.799470,9.749949,0.361197,-0.011470,-0.027458,-0.004383,220
1784729910512000,0.804108,9.769113,0.366197,-0.011481,-0.028569,-0.007541,221
1784729910522000,0.803975,9.773880,0.371014,-0.009979,-0.027918,-0.013390,222
1784729910532000,0.794273,9.764243,0.375520,-0.007390,-0.025586,-0.015050,223
1784729910542000,0.789368,9.754615,0.380153,-0.005288,-0.023295,-0.013530,224
1784729910552000,0.784663,9.773822,0.375301,-0.003737,-0.020440,-0.011479,225
1784729910562000,0.779899,9.754629,0.375099,-0.002783,-0.016432,-0.010488,226
1784729910572000,0.770306,9.754614,0.374844,-0.002383,-0.011300,-0.007916,227
1784729910582000,0.775069,9.773807,0.375046,-0.001960,-0.007302,-0.006387,228
1784729910592000,0.784572,9.754607,0.380025,-0.001525,-0.003871,-0.005380,229
1784729910602000,0.784813,9.759461,0.370447,-0.001119,0.000139,-0.004908,230
1784729910612000,0.784688,9.759433,0.375245,-0.000093,0.001861,-0.004419,231
1784729910623000,0.789626,9.749876,0.370538,-0.000142,0.003013,-0.004961,232
1784729910633000,0.789502,9.749847,0.375336,0.000884,0.004735,-0.004472,233
1784729910643000,0.780007,9.764250,0.370338,0.001922,0.005889,-0.004505,234
1784729910653000,0.789718,9.769091,0.365814,0.003499,0.007048,-0.004547,235
1784729910663000,0.789726,9.764295,0.365795,0.004018,0.007625,-0.004563,236
1784729910673000,0.794514,9.769097,0.365942,0.005627,0.007644,-0.005121,237
1784729910683000,0.780024,9.754658,0.370301,0.005630,0.007083,-0.006171,238
1784729910693000,0.794415,9.754680,0.370684,0.005720,0.004785,-0.005616,239
1784729910703000,0.794523,9.764301,0.365923,0.005250,0.003055,-0.005057,240
1784729910713000,0.799445,9.764338,0.361253,0.004789,0.001320,-0.003971,241
1784729910723000,0.785320,9.754782,0.351236,0.002183,-0.001000,-0.003367,242
1784729910733000,0.775727,9.754766,0.350980,0.001701,-0.002162,-0.002287,243
1784729910743000,0.775710,9.764359,0.351017,-0.000415,-0.003325,-0.002235,244
1784729910753000,0.785179,9.764344,0.356071,-0.003059,-0.005060,-0.002695,245
1784729910763000,0.785445,9.754810,0.346437,-0.004581,-0.006815,-0.000532,246
1784729910773000,0.780399,9.754745,0.355906,-0.007785,-0.007981,-0.000989,247
1784729910783000,0.789976,9.764352,0.356199,-0.010450,-0.009142,-0.001456,248
1784729910793000,0.789984,9.759556,0.356180,-0.010371,-0.010874,-0.000379,249
1784729910803000,0.770280,9.769002,0.374899,-0.010911,-0.010878,-0.000369,250
1784729910813000,0.780265,9.759512,0.360723,-0.011969,-0.011459,-0.000343,251
1784729910823000,0.794656,9.759534,0.361106,-0.011409,-0.012028,-0.000346,252
1784729910833000,0.789868,9.754731,0.360960,-0.010731,-0.015474,0.000741,253
1784729910843000,0.779891,9.759425,0.375118,-0.009073,-0.016608,0.000726,254
1784729910853000,0.775318,9.773865,0.365449,-0.009052,-0.017181,0.000733,255
1784729910863000,0.794514,9.769097,0.365942,-0.007406,-0.017747,0.001239,0
1784729910873000,0.789335,9.773800,0.380227,-0.005846,-0.016576,0.000140,1
1784729910883000,0.789601,9.764265,0.370593,-0.005927,-0.014284,0.000113,2
1784729910893000,0.779874,9.769017,0.375155,-0.004999,-0.010258,-0.000482,3
1784729910903000,0.779883,9.764221,0.375136,-0.004590,-0.006809,-0.001061,4
1784729910913000,0.780007,9.764250,0.370338,-0.004741,-0.002792,-0.001636,5
1784729910923000,0.794506,9.773894,0.365960,-0.005361,-0.000504,-0.001653,6
1784729910933000,0.789368,9.754615,0.380153,-0.004402,0.002382,-0.002763,7
1784729910943000,0.784546,9.768995,0.380081,-0.003396,0.004677,-0.002281,8
1784729910953000,0.784929,9.764287,0.365668,-0.003543,0.008133,-0.003907,9
1784729910963000,0.794415,9.754680,0.370684,-0.002529,0.010422,-0.002896,10
1784729910973000,0.789601,9.764265,0.370593,-0.001499,0.011583,-0.003457,11
1784729910983000,0.794514,9.769097,0.365942,0.000623,0.013301,-0.001930,12
1784729910993000,0.784787,9.773850,0.370503,0.000568,0.013898,-0.004051,13
1784729911003000,0.789760,9.745110,0.365721,0.001704,0.012748,-0.003000,14
1784729911013000,0.794265,9.769039,0.375538,0.001707,0.012187,-0.004050,15
1784729911023000,0.789476,9.764236,0.375392,0.003867,0.011643,-0.005139,16
1784729911033000,0.780265,9.759512,0.360723,0.003377,0.010487,-0.004587,17
1784729911043000,0.785096,9.740335,0.360776,0.003406,0.009908,-0.004052,18
1784729911053000,0.780141,9.759483,0.365521,0.002368,0.008753,-0.004019,19
1784729911063000,0.780265,9.759512,0.360723,0.001351,0.007025,-0.003980,20
1784729911073000,0.784821,9.754665,0.370429,0.000855,0.005314,-0.005007,21
1784729911083000,0.784846,9.740276,0.370373,-0.001264,0.004712,-0.003905,22
1784729911093000,0.789993,9.754760,0.356162,-0.001752,0.002994,-0.004404,23
1784729911103000,0.780523,9.754774,0.351108,-0.002761,0.001260,-0.003836,24
1784729911113000,0.794514,9.769097,0.365942,-0.005376,-0.001053,-0.003761,25
1784729911123000,0.775710,9.764359,0.351017,-0.006936,-0.002224,-0.002661,26
1784729911133000,0.789751,9.749906,0.365740,-0.008530,-0.003371,-0.003676,27
1784729911143000,0.784813,9.759461,0.370447,-0.009580,-0.003958,-0.003121,28
1784729911153000,0.789976,9.764352,0.356199,-0.009507,-0.006245,-0.003623,29
1784729911163000,0.789859,9.759527,0.360978,-0.009458,-0.007397,-0.003081,30
1784729911173000,0.780232,9.778697,0.360797,-0.009409,-0.008549,-0.002539,31
1784729911183000,0.779874,9.769017,0.375155,-0.009368,-0.009695,-0.002526,32
1784729911193000,0.789718,9.769091,0.365814,-0.008266,-0.010821,-0.003589,33
1784729911203000,0.794157,9.759418,0.380299,-0.007632,-0.012560,-0.001464,34
1784729911213000,0.789601,9.764265,0.370593,-0.006562,-0.012545,-0.002012,35
1784729911223000,0.784954,9.749898,0.365612,-0.006501,-0.014265,-0.001992,36
1784729911233000,0.789601,9.764265,0.370593,-0.005921,-0.015407,-0.001988,37
1784729911243000,0.789718,9.769091,0.365814,-0.005872,-0.016559,-0.001446,38
1784729911253000,0.784946,9.754695,0.365630,-0.004744,-0.017702,-0.000923,39
1784729911263000,0.784796,9.769053,0.370484,-0.003686,-0.017121,-0.000949,40
1784729911273000,0.789460,9.773829,0.375429,-0.004219,-0.016570,0.000639,41
1784729911283000,0.794523,9.764301,0.365923,-0.003190,-0.015409,0.000078,42
1784729911293000,0.794165,9.754622,0.380281,-0.002711,-0.013686,0.000048,43
1784729911303000,0.789235,9.759382,0.384970,-0.001714,-0.011385,0.000002,44
1784729911313000,0.789227,9.764178,0.384988,-0.001824,-0.008513,-0.000560,45
1784729911323000,0.779899,9.754629,0.375099,-0.001876,-0.006800,-0.000052,46
1784729911333000,0.789726,9.764295,0.365795,-0.000856,-0.005634,-0.001142,47
1784729911343000,0.784929,9.764287,0.365668,-0.000389,-0.003343,-0.000650,48
1784729911353000,0.775335,9.764272,0.365412,0.000113,-0.002754,-0.001723,49
1784729911363000,0.784929,9.764287,0.365668,0.001130,-0.001026,-0.001762,50
1784729911373000,0.789851,9.764323,0.360997,0.002719,-0.000434,-0.002326,51
1784729911383000,0.780149,9.754687,0.365503,0.002131,0.000714,-0.002859,52
1784729911393000,0.780132,9.764279,0.365540,0.003189,0.001295,-0.002885,53
1784729911403000,0.785054,9.764316,0.360869,0.001600,0.000704,-0.002321,54
1784729911413000,0.780157,9.749890,0.365484,0.001551,0.001856,-0.002863,55
1784729911423000,0.785437,9.759606,0.346456,0.001023,0.001284,-0.003375,56
1784729911433000,0.780132,9.764279,0.365540,0.000443,0.002426,-0.003378,57
1784729911443000,0.789743,9.754703,0.365758,-0.001143,0.001273,-0.003865,58
1784729911453000,0.785196,9.754752,0.356034,-0.002720,0.000114,-0.003822,59
1784729911463000,0.780390,9.759541,0.355925,-0.004320,0.000090,-0.002736,60
1784729911473000,0.784929,9.764287,0.365668,-0.005358,-0.001065,-0.002704,61
1784729911483000,0.785320,9.754782,0.351236,-0.006956,-0.001651,-0.002668,62
1784729911493000,0.785170,9.769140,0.356090,-0.007994,-0.002805,-0.002635,63
1784729911503000,0.789842,9.769119,0.361016,-0.009620,-0.002812,-0.003135,64
1784729911513000,0.789743,9.754703,0.365758,-0.009044,-0.003393,-0.002081,65
1784729911523000,0.784929,9.764287,0.365668,-0.009061,-0.003381,-0.003138,66
1784729911533000,0.784796,9.769053,0.370484,-0.009603,-0.002824,-0.002078,67
1784729911543000,0.780024,9.754658,0.370301,-0.009067,-0.002259,-0.001037,68
1784729911553000,0.784679,9.764229,0.375264,-0.008516,-0.002822,-0.001569,69
1784729911563000,0.789360,9.759411,0.380171,-0.007466,-0.002234,-0.002123,70
1784729911573000,0.784696,9.754637,0.375227,-0.007487,-0.001661,-0.002130,71
1784729911583000,0.784688,9.759433,0.375245,-0.006437,-0.001073,-0.002684,72
1784729911593000,0.794531,9.759505,0.365904,-0.005390,0.000075,-0.002189,73
1784729911603000,0.789352,9.764207,0.380190,-0.004863,0.000647,-0.001676,74
1784729911613000,0.784546,9.768995,0.380081,-0.002175,0.000674,-0.002253,75
1784729911623000,0.784679,9.764229,0.375264,-0.001128,0.001823,-0.001757,76
1784729911633000,0.780007,9.764250,0.370338,-0.000618,0.002406,-0.002302,77
1784729911644000,0.789468,9.769032,0.375410,0.000391,0.004139,-0.002870,78
1784729911654000,0.785054,9.764316,0.360869,0.002519,0.004735,-0.003444,79
1784729911664000,0.789618,9.754673,0.370556,0.003035,0.005874,-0.002410,80
1784729911674000,0.779908,9.749832,0.375081,0.003574,0.005878,-0.002420,81
1784729911684000,0.784804,9.764257,0.370466,0.002441,0.006467,-0.004521,82
1784729911694000,0.789876,9.749934,0.360941,0.003528,0.006469,-0.004012,83
1784729911704000,0.794665,9.754738,0.361088,0.002461,0.005894,-0.004514,84
1784729911714000,0.785062,9.759520,0.360851,0.001951,0.005310,-0.003969,85
1784729911724000,0.775602,9.754737,0.355778,0.000333,0.005298,-0.003941,86
1784729911734000,0.789734,9.759499,0.365777,-0.001183,0.002419,-0.003878,87
1784729911744000,0.785312,9.759578,0.351254,-0.002781,0.001834,-0.003842,88
1784729911754000,0.780365,9.773930,0.355980,-0.003810,0.000673,-0.003281,89
1784729911764000,0.794773,9.764359,0.356327,-0.005387,-0.000486,-0.003239,90
1784729911774000,0.780515,9.759570,0.351126,-0.005877,-0.001642,-0.002687,91
1784729911784000,0.790001,9.749963,0.356143,-0.006434,-0.001635,-0.003735,92
1784729911794000,0.780132,9.764279,0.365540,-0.006904,-0.003364,-0.003176,93
1784729911804000,0.789993,9.754760,0.356162,-0.007434,-0.003374,-0.002638,94
1784729911814000,0.784688,9.759433,0.375245,-0.007892,-0.005671,-0.002602,95
1784729911824000,0.789743,9.754703,0.365758,-0.008391,-0.006821,-0.002579,96
1784729911834000,0.794523,9.764301,0.365923,-0.009412,-0.007988,-0.001489,97
1784729911844000,0.798962,9.754629,0.380408,-0.008762,-0.010855,-0.000936,98
1784729911854000,0.770155,9.768972,0.379698,-0.008214,-0.010857,-0.000418,99
1784729911864000,0.789584,9.773858,0.370631,-0.007107,-0.011427,0.000098,100
1784729911874000,0.784804,9.764257,0.370466,-0.006518,-0.012575,0.000631,101
1784729911884000,0.789493,9.754644,0.375355,-0.006597,-0.010844,-0.000446,102
1784729911894000,0.789468,9.769032,0.375410,-0.004950,-0.011410,0.000060,103
1784729911904000,0.784929,9.764287,0.365668,-0.004460,-0.010254,-0.000492,104
1784729911914000,0.789352,9.764207,0.380190,-0.003413,-0.009105,0.000004,105
1784729911924000,0.784671,9.769025,0.375283,-0.003442,-0.008526,-0.000531,106
1784729911934000,0.784671,9.769025,0.375283,-0.002984,-0.006230,-0.000568,107
1784729911944000,0.784796,9.769053,0.370484,-0.002433,-0.006792,-0.001099,108
1784729911954000,0.784679,9.764229,0.375264,-0.000345,-0.005050,-0.001686,109
1784729911964000,0.779899,9.754629,0.375099,0.000142,-0.003333,-0.001188,110
1784729911974000,0.794407,9.759476,0.370703,0.002716,0.000127,-0.001276,111
1784729911984000,0.789851,9.764323,0.360997,0.003705,0.002434,-0.001851,112
1784729911994000,0.789743,9.754703,0.365758,0.003737,0.001294,-0.002366,113
1784729912004000,0.784821,9.754665,0.370429,0.005233,0.004745,-0.002435,114
1784729912014000,0.789726,9.764295,0.365795,0.003627,0.004165,-0.002928,115
1784729912024000,0.794914,9.754796,0.351491,0.003099,0.003594,-0.003440,116
1784729912034000,0.780399,9.754745,0.355906,0.000974,0.002436,-0.003917,117
1784729912044000,0.780382,9.764337,0.355943,0.000403,0.003572,-0.003392,118
1784729912054000,0.785196,9.754752,0.356034,-0.000566,0.000692,-0.002811,119
1784729912064000,0.780149,9.754687,0.365503,-0.002175,0.000674,-0.002253,120
1784729912074000,0.780141,9.759483,0.365521,-0.003181,-0.001621,-0.002735,121
1784729912084000,0.780515,9.759570,0.351126,-0.004836,-0.001049,-0.003770,122
1784729912094000,0.780274,9.754716,0.360704,-0.005318,-0.002211,-0.002690,123
1784729912104000,0.784954,9.749898,0.365612,-0.006936,-0.002224,-0.002661,124
1784729912114000,0.785179,9.764344,0.356071,-0.007466,-0.002234,-0.002123,125
1784729912124000,0.789610,9.759469,0.370575,-0.007985,-0.002811,-0.002107,126
1784729912134000,0.780007,9.764250,0.370338,-0.007417,-0.003386,-0.001581,127
1784729912144000,0.779758,9.764192,0.379935,-0.008026,-0.001665,-0.002120,128
1784729912154000,0.789476,9.764236,0.375392,-0.006437,-0.001073,-0.002684,129
1784729912164000,0.789601,9.764265,0.370593,-0.005930,0.000071,-0.002179,130
1784729912174000,0.784679,9.764229,0.375264,-0.005399,0.000081,-0.002717,131
1784729912184000,0.789601,9.764265,0.370593,-0.003790,0.000100,-0.003274,132
1784729912194000,0.780141,9.759483,0.365521,-0.003262,0.000671,-0.002762,133
1784729912204000,0.789476,9.764236,0.375392,-0.002743,0.001249,-0.002779,134
1784729912214000,0.789618,9.754673,0.370556,-0.002204,0.001253,-0.002788,135
1784729912224000,0.789868,9.754731,0.360960,-0.002192,0.000686,-0.003310,136
1784729912234000,0.789601,9.764265,0.370593,-0.001105,0.000688,-0.002801,137
1784729912244000,0.770047,9.759352,0.384459,0.000521,0.000695,-0.002301,138
1784729912254000,0.775086,9.764214,0.375009,0.000513,0.000701,-0.002830,139
1784729912264000,0.775069,9.773807,0.375046,0.002110,0.001287,-0.002865,140
1784729912274000,0.784696,9.754637,0.375227,0.002119,0.001281,-0.002337,141
1784729912284000,0.789726,9.764295,0.365795,0.001101,-0.000447,-0.002298,142
1784729912294000,0.785312,9.759578,0.351254,0.000574,-0.001018,-0.002810,143
1784729912304000,0.789734,9.759499,0.365777,0.000565,-0.001012,-0.003338,144
1784729912314000,0.780257,9.764308,0.360742,0.000084,-0.002175,-0.002258,145
1784729912324000,0.789734,9.759499,0.365777,-0.001514,-0.002760,-0.002222,146
1784729912334000,0.790001,9.749963,0.356143,-0.002021,-0.003905,-0.002728,147
1784729912344000,0.790001,9.749963,0.356143,-0.003082,-0.003925,-0.001652,148
1784729912354000,0.785071,9.754724,0.360832,-0.003601,-0.004503,-0.001635,149
1784729912364000,0.780016,9.759454,0.370319,-0.005176,-0.006223,-0.002643,150
1784729912374000,0.789734,9.759499,0.365777,-0.006797,-0.005674,-0.001564,151
1784729912384000,0.789726,9.764295,0.365795,-0.006237,-0.006243,-0.001567,152
1784729912394000,0.784946,9.754695,0.365630,-0.007292,-0.007386,-0.002591,153
1784729912404000,0.780132,9.764279,0.365540,-0.006724,-0.007961,-0.002066,154
1784729912414000,0.789751,9.749906,0.365740,-0.007803,-0.007969,-0.002046,155
1784729912424000,0.784787,9.773850,0.370503,-0.006727,-0.007399,-0.001015,156
1784729912434000,0.789726,9.764295,0.365795,-0.006205,-0.007383,-0.002082,157
1784729912444000,0.789360,9.759411,0.380171,-0.006135,-0.009109,-0.001533,158
1784729912454000,0.774961,9.764184,0.379807,-0.005645,-0.007952,-0.002085,159
1784729912464000,0.780024,9.754658,0.370301,-0.005089,-0.007960,-0.001037,160
1784729912474000,0.784555,9.764199,0.380062,-0.003491,-0.007374,-0.001073,161
1784729912484000,0.779650,9.754571,0.384696,-0.004080,-0.006226,-0.001605,162
1784729912494000,0.780016,9.759454,0.370319,-0.003042,-0.005071,-0.001638,163
1784729912504000,0.780132,9.764279,0.365540,-0.002572,-0.003342,-0.002196,164
1784729912514000,0.775194,9.773835,0.370247,-0.002581,-0.003336,-0.002725,165
1784729912524000,0.784546,9.768995,0.380081,-0.001523,-0.002755,-0.002751,166
1784729912534000,0.789451,9.778625,0.375447,-0.001027,-0.001043,-0.001724,167
1784729912544000,0.784938,9.759491,0.365649,0.000084,-0.002175,-0.002258,168
1784729912554000,0.789734,9.759499,0.365777,-0.000485,-0.001600,-0.002784,169
1784729912564000,0.780132,9.764279,0.365540,-0.000476,-0.001606,-0.002255,170
1784729912574000,0.775335,9.764272,0.365412,0.000026,-0.001017,-0.003328,171
1784729912584000,0.784938,9.759491,0.365649,-0.000476,-0.001606,-0.002255,172
1784729912594000,0.784929,9.764287,0.365668,-0.000517,-0.000460,-0.002269,173
1784729912604000,0.784912,9.773880,0.365705,0.000023,-0.000455,-0.002278,174
1784729912614000,0.780274,9.754716,0.360704,-0.000525,-0.000454,-0.002797,175
1784729912624000,0.775460,9.764300,0.360614,-0.000545,0.000119,-0.002804,176
1784729912634000,0.780141,9.759483,0.365521,-0.002143,-0.000466,-0.002768,177
1784729912644000,0.789726,9.764295,0.365795,-0.002134,-0.000472,-0.002240,178
1784729912654000,0.780523,9.754774,0.351108,-0.003213,-0.000481,-0.002220,179
1784729912664000,0.789734,9.759499,0.365777,-0.004181,-0.003361,-0.001639,180
1784729912675000,0.784938,9.759491,0.365649,-0.004741,-0.002792,-0.001636,181
1784729912685000,0.780390,9.759541,0.355925,-0.005309,-0.002217,-0.002162,182
1784729912695000,0.784705,9.749840,0.375208,-0.005289,-0.002790,-0.002155,183
1784729912705000,0.789618,9.754673,0.370556,-0.004202,-0.002788,-0.001646,184
1784729912715000,0.789734,9.759499,0.365777,-0.005300,-0.002223,-0.001633,185
1784729912725000,0.785054,9.764316,0.360869,-0.004239,-0.002203,-0.002709,186
1784729912735000,0.784796,9.769053,0.370484,-0.003143,-0.002206,-0.001672,187
1784729912745000,0.784929,9.764287,0.365668,-0.003703,-0.001637,-0.001669,188
1784729912755000,0.775227,9.754650,0.370173,-0.003793,0.000661,-0.002224,189
1784729912765000,0.779624,9.768959,0.384751,-0.003781,0.000094,-0.002746,190
1784729912775000,0.789610,9.759469,0.370575,-0.003262,0.000671,-0.002762,191
1784729912785000,0.794299,9.749854,0.375464,-0.003772,0.000088,-0.002217,192
1784729912795000,0.789718,9.769091,0.365814,-0.003245,0.000659,-0.001705,193
1784729912805000,0.780249,9.769104,0.360760,-0.002743,0.001249,-0.002779,194
1784729912815000,0.789502,9.749847,0.375336,-0.001656,0.001251,-0.002269,195
1784729912825000,0.770280,9.769002,0.374899,-0.002763,0.001822,-0.002785,196
1784729912835000,0.790109,9.759585,0.351382,-0.001644,0.000684,-0.002791,197
1784729912845000,0.784929,9.764287,0.365668,-0.003303,0.001817,-0.002776,198
1784729912855000,0.780149,9.754687,0.365503,-0.001685,0.001830,-0.002805,199
1784729912865000,0.780132,9.764279,0.365540,-0.002694,0.000096,-0.002237,200
1784729912875000,0.780024,9.754658,0.370301,-0.002155,0.000101,-0.002246,201
1784729912885000,0.775361,9.749883,0.365356,-0.002163,0.000107,-0.002775,202
1784729912895000,0.794648,9.764330,0.361125,-0.003683,-0.002210,-0.001662,203
1784729912905000,0.789718,9.769091,0.365814,-0.003662,-0.002783,-0.001655,204
1784729912915000,0.780157,9.749890,0.365484,-0.004202,-0.002788,-0.001646,205
1784729912925000,0.789967,9.769148,0.356217,-0.004721,-0.003365,-0.001629,206
1784729912935000,0.780132,9.764279,0.365540,-0.005280,-0.002796,-0.001626,207
1784729912945000,0.794648,9.764330,0.361125,-0.005779,-0.003947,-0.001603,208
1784729912955000,0.794140,9.769010,0.380336,-0.005788,-0.003941,-0.002132,209
1784729912965000,0.789851,9.764323,0.360997,-0.005799,-0.003373,-0.001610,210
1784729912975000,0.780007,9.764250,0.370338,-0.005808,-0.003368,-0.002139,211
1784729912985000,0.789593,9.769061,0.370612,-0.004231,-0.002209,-0.002181,212
1784729912995000,0.789984,9.759556,0.356180,-0.005329,-0.001644,-0.002168,213
1784729913005000,0.789601,9.764265,0.370593,-0.004729,-0.003359,-0.002158,214
1784729913015000,0.789743,9.754703,0.365758,-0.004251,-0.001636,-0.002188,215
1784729913025000,0.784830,9.749868,0.370410,-0.004242,-0.001641,-0.001659,216
1784729913035000,0.780282,9.749919,0.360686,-0.002682,-0.000471,-0.002758,217
1784729913045000,0.784438,9.759375,0.384842,-0.003712,-0.001631,-0.002197,218
1784729913055000,0.794665,9.754738,0.361088,-0.003164,-0.001633,-0.001678,219
1784729913065000,0.779899,9.754629,0.375099,-0.003193,-0.001054,-0.002214,220
1784729913075000,0.779899,9.754629,0.375099,-0.003225,0.000086,-0.001699,221
1784729913085000,0.780115,9.773872,0.365577,-0.003193,-0.001054,-0.002214,222
1784729913095000,0.789493,9.754644,0.375355,-0.001566,-0.001047,-0.001714,223
1784729913105000,0.789743,9.754703,0.365758,-0.001615,0.000105,-0.002256,224
1784729913115000,0.789476,9.764236,0.375392,-0.001595,-0.000468,-0.002249,225
1784729913125000,0.784796,9.769053,0.370484,-0.000537,0.000113,-0.002275,226
1784729913135000,0.779874,9.769017,0.375155,-0.000488,-0.001039,-0.001733,227
1784729913145000,0.794415,9.754680,0.370684,-0.001546,-0.001620,-0.001707,228
1784729913155000,0.784929,9.764287,0.365668,-0.001583,-0.001035,-0.002771,229
1784729913165000,0.794523,9.764301,0.365923,-0.001015,-0.001610,-0.002246,230
1784729913175000,0.789859,9.759527,0.360978,-0.002105,-0.001051,-0.001704,231
1784729913185000,0.784671,9.769025,0.375283,-0.001563,-0.001608,-0.002764,232
1784729913195000,0.789593,9.769061,0.370612,-0.003193,-0.001054,-0.002214,233
1784729913205000,0.789593,9.769061,0.370612,-0.002633,-0.001623,-0.002217,234
1784729913215000,0.775219,9.759446,0.370192,-0.001586,-0.000474,-0.001721,235
1784729913225000,0.784804,9.764257,0.370466,-0.001607,0.000099,-0.001728,236
1784729913235000,0.789876,9.749934,0.360941,-0.002114,-0.001045,-0.002233,237
1784729913245000,0.789485,9.759440,0.375373,-0.000528,0.000108,-0.001747,238
1784729913255000,0.789493,9.754644,0.375355,-0.001644,0.000684,-0.002791,239
1784729913265000,0.775585,9.764329,0.355816,-0.002184,0.000680,-0.002782,240
1784729913275000,0.785553,9.764432,0.341676,-0.001615,0.000105,-0.002256,241
1784729913285000,0.784938,9.759491,0.365649,-0.002155,0.000101,-0.002246,242
1784729913295000,0.784912,9.773880,0.365705,-0.003761,-0.000479,-0.002739,243
1784729913305000,0.779874,9.769017,0.375155,-0.002682,-0.000471,-0.002758,244
1784729913315000,0.785179,9.764344,0.356071,-0.005309,-0.002217,-0.002162,245
1784729913325000,0.785187,9.759548,0.356052,-0.005840,-0.002227,-0.001624,246
1784729913335000,0.780132,9.764279,0.365540,-0.005300,-0.002223,-0.001633,247
1784729913345000,0.780265,9.759512,0.360723,-0.005280,-0.002796,-0.001626,248
1784729913355000,0.789718,9.769091,0.365814,-0.005808,-0.003368,-0.002139,249
1784729913365000,0.780149,9.754687,0.365503,-0.006338,-0.003378,-0.001600,250
1784729913375000,0.780016,9.759454,0.370319,-0.006286,-0.005091,-0.002109,251
1784729913385000,0.780141,9.759483,0.365521,-0.006808,-0.005107,-0.001042,252
1784729913395000,0.780274,9.754716,0.360704,-0.006307,-0.004518,-0.002115,253
1784729913405000,0.780249,9.769104,0.360760,-0.006338,-0.003378,-0.001600,254
1784729913415000,0.785187,9.759548,0.356052,-0.005257,-0.003930,-0.002670,255
1784729913425000,0.784679,9.764229,0.375264,-0.004700,-0.003938,-0.001623,0
1784729913435000,0.784447,9.754579,0.384823,-0.004741,-0.002792,-0.001636,1
1784729913445000,0.789352,9.764207,0.380190,-0.004190,-0.003355,-0.002167,2
1784729913455000,0.789610,9.759469,0.370575,-0.004210,-0.002782,-0.002174,3
1784729913465000,0.784421,9.768967,0.384879,-0.003651,-0.003351,-0.002177,4
1784729913475000,0.779500,9.768930,0.389550,-0.003654,-0.002789,-0.001127,5
1784729913485000,0.780141,9.759483,0.365521,-0.003132,-0.002773,-0.002193,6
1784729913495000,0.779899,9.754629,0.375099,-0.003691,-0.002204,-0.002191,7
1784729913505000,0.794648,9.764330,0.361125,-0.002073,-0.002192,-0.002220,8
1784729913515000,0.789485,9.759440,0.375373,-0.001064,-0.000458,-0.002787,9
1784729913525000,0.795306,9.745290,0.337059,-0.002155,0.000101,-0.002246,10
1784729913535000,0.779383,9.764105,0.394329,-0.001607,0.000099,-0.001728,11
1784729913545000,0.789859,9.759527,0.360978,-0.000545,0.000119,-0.002804,12
1784729913555000,0.784438,9.759375,0.384842,-0.000534,-0.000448,-0.003326,13
1784729913565000,0.784938,9.759491,0.365649,-0.002123,-0.001040,-0.002761,14
1784729913575000,0.780373,9.769133,0.355962,-0.001575,-0.001041,-0.002243,15
1784729913585000,0.780007,9.764250,0.370338,-0.002062,-0.002759,-0.002741,16
1784729913595000,0.770538,9.764264,0.365284,-0.002592,-0.002769,-0.002203,17
1784729913605000,0.780016,9.759454,0.370319,-0.002523,-0.004494,-0.001655,18
1784729913615000,0.784804,9.764257,0.370466,-0.003062,-0.004498,-0.001645,19
1784729913625000,0.790100,9.764381,0.351401,-0.002532,-0.004488,-0.002183,20
1784729913635000,0.780132,9.764279,0.365540,-0.003062,-0.004498,-0.001645,21
1784729913645000,0.780007,9.764250,0.370338,-0.003062,-0.004498,-0.001645,22
1784729913655000,0.785088,9.745131,0.360795,-0.003042,-0.005071,-0.001638,23
1784729913665000,0.789502,9.749847,0.375336,-0.003091,-0.003919,-0.002180,24
1784729913675000,0.779891,9.759425,0.375118,-0.003622,-0.003930,-0.001642,25
1784729913685000,0.785312,9.759578,0.351254,-0.004741,-0.002792,-0.001636,26
1784729913696000,0.780265,9.759512,0.360723,-0.005837,-0.002788,-0.002674,27
1784729913706000,0.784813,9.759461,0.370447,-0.006907,-0.002803,-0.002126,28
1784729913716000,0.784546,9.768995,0.380081,-0.005289,-0.002790,-0.002155,29
1784729913726000,0.780007,9.764250,0.370338,-0.003720,-0.001625,-0.002726,30
1784729913736000,0.789485,9.759440,0.375373,-0.002682,-0.000471,-0.002758,31
1784729913746000,0.789468,9.769032,0.375410,-0.001102,0.000127,-0.003851,32
1784729913756000,0.794273,9.764243,0.375520,-0.000035,0.000703,-0.003349,33
1784729913766000,0.788969,9.768916,0.394603,0.004259,0.001310,-0.003433,34
1784729913776000,0.784072,9.754492,0.399218,0.008904,0.006523,-0.005165,35
1784729913786000,0.779350,9.783290,0.394403,0.015639,0.012918,-0.008535,36
1784729913796000,0.779358,9.778494,0.394385,0.022273,0.020501,-0.015618,37
1784729913806000,0.784354,9.807337,0.385028,0.028305,0.027004,-0.029020,38
1784729913816000,0.793030,9.903103,0.414444,0.053926,0.032236,-0.068655,39
1784729913826000,0.809101,9.941901,0.347800,0.027593,0.028425,-0.104083,40
1784729913836000,0.704166,10.383311,0.293917,0.007353,0.007404,-0.235078,41
1784729913846000,0.681684,9.457568,0.294494,-0.001098,0.002367,-0.201037,42
1784729913856000,0.680355,10.071430,0.306466,-0.017924,-0.016331,-0.180950,43
1784729913866000,0.757854,9.361588,0.324956,-0.017997,-0.018706,-0.123304,44
1784729913876000,0.699470,9.615614,0.338802,-0.020974,-0.026926,-0.057607,45
1784729913886000,0.708303,9.764196,0.358825,-0.021480,-0.030682,-0.030066,46
1784729913896000,0.857266,10.114758,0.330553,-0.022956,-0.033773,-0.061716,47
1784729913906000,0.431181,8.641237,0.380661,-0.024982,-0.038532,-0.300008,48
1784729913916000,0.731357,10.080700,0.375084,-0.021932,-0.040805,-0.249291,49
1784729913926000,0.669550,9.907995,0.363159,-0.011790,-0.043074,-0.294901,50
1784729913936000,0.765542,10.445557,0.329406,-0.022719,-0.047909,-0.280375,51
1784729913946000,0.859837,10.670840,0.380816,-0.041976,-0.064573,-0.239127,52
1784729913956000,0.962803,10.254069,0.324305,-0.042468,-0.114195,-0.210491,53
1784729913966000,0.913817,9.980261,0.379548,-0.047352,-0.135275,-0.224943,54
1784729913976000,0.970820,10.085781,0.395884,-0.038189,-0.142469,-0.241403,55
1784729913986000,0.964205,9.569357,0.129593,-0.017302,-0.172029,-0.248810,56
1784729913996000,0.972045,9.318351,0.397713,-0.060508,-0.168410,-0.243329,57
1784729914006000,1.169685,9.621168,0.346541,-0.075862,-0.162019,-0.210892,58
1784729914016000,1.187318,9.399012,0.605431,-0.046350,-0.135403,-0.162588,59
1784729914026000,1.490050,9.336854,-0.140617,-0.268355,-0.038108,-0.097998,60
1784729914036000,1.079825,8.915614,-0.398074,-0.600821,0.033837,-0.045931,61
1784729914046000,0.680864,9.136632,-0.575889,-1.078140,0.030306,-0.006741,62
1784729914056000,0.429739,8.946510,-0.136763,-1.474196,0.089043,0.055078,63
1784729914066000,-0.027422,9.304225,0.068542,-1.712688,0.037858,0.111223,64
1784729914076000,0.521680,9.261307,0.183828,-1.889787,-0.190616,0.174280,65
1784729914086000,0.020371,9.393212,0.439892,-2.090251,-0.464074,0.195494,66
1784729914096000,0.338364,9.783053,1.107716,-2.075830,-0.694633,0.218170,67
1784729914106000,0.456977,9.984089,0.410616,-1.694209,-0.852181,0.217029,68
1784729914116000,0.992697,10.095288,-1.183249,-0.088893,-0.405334,0.260133,69
1784729914126000,0.662893,11.421571,-1.691012,0.269370,0.183975,0.241198,70
1784729914136000,0.486160,10.963063,0.333598,-0.397178,0.254973,0.151218,71
1784729914146000,0.448672,10.008736,1.097131,-0.311462,0.234978,0.102369,72
1784729914156000,0.452728,9.832145,0.952497,-0.087310,0.223452,0.057296,73
1784729914166000,0.466858,9.992661,0.583773,-0.009071,0.235410,0.016114,74
1784729914176000,0.486307,10.027445,0.387558,-0.043656,0.251591,-0.018885,75
1784729914186000,0.391466,9.858507,0.538025,-0.078017,0.280295,-0.046115,76
1784729914196000,0.310060,9.665379,0.727168,-0.065674,0.306344,-0.060399,77
1784729914206000,0.326596,9.540038,0.837556,-0.045276,0.322043,-0.066241,78
1784729914216000,0.287067,9.414958,0.888833,-0.028460,0.335341,-0.065119,79
1784729914226000,0.368650,9.323926,0.895450,-0.009122,0.341697,-0.056555,80
1784729914236000,0.378860,9.328882,0.871733,0.014968,0.354312,-0.040754,81
1784729914246000,0.390633,9.367788,0.785768,0.033925,0.375467,-0.023381,82
1784729914256000,0.314714,9.391855,0.750229,0.034211,0.407892,-0.001586,83
1784729914266000,0.290786,9.430216,0.744941,0.033957,0.426519,0.023560,84
1784729914276000,0.175982,9.530875,0.723072,0.043488,0.428019,0.049272,85
1784729914286000,0.041375,9.626562,0.724664,0.043542,0.420339,0.069452,86
1784729914296000,-0.053867,9.727338,0.688912,0.038148,0.396064,0.083591,87
1784729914306000,-0.096076,9.818662,0.644930,0.031920,0.363226,0.094150,88
1784729914316000,-0.108845,9.819016,0.582170,0.036849,0.332829,0.099195,89
1784729914326000,-0.049742,9.795471,0.526031,0.042479,0.311645,0.100942,90
1784729914336000,-0.021083,9.723515,0.536116,0.041082,0.290418,0.101757,91
1784729914346000,0.002480,9.608296,0.560300,0.042424,0.267505,0.101488,92
1784729914356000,0.022668,9.536585,0.526945,0.052946,0.244097,0.100533,93
1784729914366000,0.005970,9.469958,0.435008,0.059797,0.218910,0.102308,94
1784729914376000,0.007867,9.456005,0.362978,0.053717,0.194731,0.107471,95
1784729914386000,-0.011246,9.484780,0.357780,0.043470,0.168741,0.118018,96
1784729914396000,0.038305,9.437241,0.301293,0.039627,0.147320,0.134208,97
1784729914406000,0.069350,9.428214,0.215654,0.046608,0.125400,0.151269,98
1784729914416000,0.032073,9.442805,0.171504,0.027526,0.108988,0.170311,99
1784729914426000,0.054877,9.404182,0.219976,0.004397,0.098326,0.185125,100
1784729914436000,0.193638,9.389922,0.238020,0.003425,0.083891,0.193778,101
1784729914446000,0.304973,9.457502,0.198034,0.011456,0.069641,0.192225,102
1784729914456000,0.353798,9.539345,0.161241,0.015325,0.061778,0.180625,103
1784729914466000,0.435818,9.625948,0.139755,0.015091,0.061939,0.166356,104
1784729914476000,0.504005,9.679073,0.098564,0.018450,0.065609,0.148279,105
1784729914486000,0.519843,9.708220,0.041479,0.022809,0.071018,0.129106,106
1784729914496000,0.497705,9.723007,-0.031077,0.016153,0.082092,0.108473,107
1784729914506000,0.573898,9.756584,-0.009711,-0.011442,0.093496,0.095080,108
1784729914516000,0.550136,9.842966,-0.024410,-0.012726,0.094746,0.085045,109
1784729914526000,0.514162,9.968218,-0.125712,0.013079,0.078415,0.076859,110
1784729914536000,0.451897,10.026829,-0.319208,0.015849,0.055646,0.064934,111
1784729914546000,0.330388,10.046574,-0.447209,-0.011088,0.031556,0.048267,112
1784729914556000,0.168409,9.979405,-0.490198,-0.025847,0.011073,0.024997,113
1784729914566000,0.009510,9.864970,-0.648531,-0.013016,-0.024724,0.006182,114
1784729914576000,-0.082617,9.998949,-0.621649,-0.034269,-0.061273,-0.019946,115
1784729914586000,-0.076445,10.430380,0.220499,-0.157735,-0.070279,-0.067325,116
1784729914596000,0.341143,10.558426,0.582641,-0.085641,-0.068846,-0.144740,117
1784729914606000,0.587051,10.721131,0.714670,0.055625,-0.019062,-0.244067,118
1784729914616000,0.759595,10.691470,0.911214,0.137143,0.018057,-0.328433,119
1784729914626000,0.841867,10.510910,1.450486,0.159661,0.082078,-0.398867,120
1784729914636000,1.187964,10.546679,1.983224,0.188877,0.104053,-0.446701,121
1784729914646000,1.323349,10.647899,1.939208,0.235567,0.148197,-0.466577,122
1784729914656000,1.405393,10.792087,1.913147,0.259259,0.201533,-0.453385,123
1784729914666000,0.947881,11.035669,1.954739,0.235501,0.256729,-0.434087,124
1784729914676000,0.405208,11.245806,1.950717,0.178118,0.291097,-0.370062,125
1784729914686000,-0.070656,11.553037,1.771192,0.191581,0.248528,-0.296833,126
1784729914696000,-0.461397,11.602121,1.472880,0.193144,0.212599,-0.210788,127
1784729914706000,-0.641189,11.463268,1.381119,0.161916,0.211011,-0.142555,128
1784729914716000,-0.716948,11.212766,1.541378,0.138540,0.186910,-0.105370,129
1784729914727000,-0.425992,10.876960,1.634240,0.156828,0.130792,-0.097602,130
1784729914737000,-0.258652,10.339692,1.694211,0.172808,0.084641,-0.111060,131
1784729914747000,-0.239028,9.623783,1.908005,0.121186,0.038090,-0.134938,132
1784729914757000,-0.239446,8.826076,2.159359,0.074929,-0.038782,-0.160124,133
1784729914767000,-0.196254,8.134097,2.388279,0.035485,-0.121430,-0.176902,134
1784729914777000,-0.126499,7.710348,2.686181,0.015541,-0.186835,-0.184725,135
1784729914787000,0.189615,7.517692,2.909918,0.024256,-0.216092,-0.176590,136
1784729914797000,0.409323,7.632971,2.945029,0.058529,-0.221621,-0.171317,137
1784729914807000,0.495403,8.109173,2.742714,0.127308,-0.204317,-0.184911,138
1784729914817000,0.754388,8.959954,2.512857,0.169790,-0.188427,-0.192734,139
1784729914827000,0.943457,9.859078,2.199700,0.172919,-0.158504,-0.201088,140
1784729914837000,0.943218,10.675826,1.972412,0.134765,-0.141189,-0.186881,141
1784729914847000,0.688923,11.175540,1.751523,0.099828,-0.125888,-0.144691,142
1784729914857000,0.184046,11.046036,1.607929,0.041446,-0.084498,-0.093949,143
1784729914867000,-0.203894,10.727786,1.778817,-0.028847,-0.083992,-0.034562,144
1784729914877000,-0.256824,10.424272,1.987493,-0.016891,-0.119007,0.028558,145
1784729914887000,-0.249199,10.093859,1.899972,0.017670,-0.146170,0.071622,146
1784729914897000,0.009702,9.927399,1.738154,0.026928,-0.195745,0.102727,147
1784729914907000,0.355882,9.655729,1.549438,-0.013411,-0.238077,0.118767,148
1784729914917000,0.587649,9.646842,1.497954,-0.067221,-0.268967,0.127506,149
1784729914927000,0.846653,9.522483,1.513966,-0.098839,-0.284825,0.139892,150
1784729914937000,0.853316,9.455749,1.446658,-0.107559,-0.274207,0.157888,151
1784729914947000,0.870467,9.518788,1.336923,-0.098080,-0.255521,0.184446,152
1784729914957000,0.865267,9.505400,1.168673,-0.097590,-0.215967,0.234692,153
1784729914967000,0.881969,9.256452,1.096118,-0.125348,-0.164936,0.264684,154
1784729914977000,0.942197,8.977757,1.197465,-0.151077,-0.132625,0.279014,155
1784729914987000,0.954027,8.871624,1.303001,-0.137292,-0.117255,0.297608,156
1784729914997000,1.219915,8.838923,1.233125,-0.100957,-0.096792,0.286666,157
1784729915007000,1.399467,8.912759,0.969301,-0.075334,-0.068261,0.264715,158
1784729915017000,1.545743,8.885848,0.699394,-0.088489,-0.034105,0.225941,159
1784729915027000,1.476869,8.838470,0.582134,-0.113678,0.014988,0.176097,160
1784729915037000,1.296083,8.838536,0.519701,-0.137456,0.042797,0.133891,161
1784729915047000,1.155190,8.757443,0.405194,-0.145249,0.074781,0.088177,162
1784729915057000,0.941549,8.772017,0.313133,-0.145963,0.106772,0.046566,163
1784729915067000,0.751625,8.868138,0.226824,-0.129481,0.130180,0.015326,164
1784729915077000,0.646725,8.863324,0.200004,-0.136962,0.160272,-0.015041,165
1784729915087000,0.616713,8.853396,0.247183,-0.129811,0.203664,-0.045833,166
1784729915097000,0.688196,8.523429,0.103743,-0.099136,0.236385,-0.080083,167
1784729915107000,0.711931,8.523408,0.113978,-0.115904,0.269283,-0.111377,168
1784729915117000,0.691058,8.700521,0.166935,-0.127170,0.304384,-0.131167,169
1784729915127000,0.907976,8.911116,0.303180,-0.156848,0.335106,-0.131019,170
1784729915137000,1.053631,8.911744,0.239837,-0.159848,0.352442,-0.145451,171
1784729915147000,1.106824,9.166231,0.208638,-0.137487,0.355055,-0.158566,172
1784729915157000,1.071072,9.266437,0.284906,-0.137240,0.344261,-0.166895,173
1784729915167000,0.845380,9.216943,0.475572,-0.148689,0.331023,-0.169699,174
1784729915177000,0.596091,9.301852,0.642128,-0.133932,0.300619,-0.157429,175
1784729915187000,0.356884,9.364005,0.607193,-0.145197,0.257429,-0.147181,176
1784729915197000,0.131643,9.454872,0.587147,-0.190969,0.194018,-0.146112,177
1784729915207000,-0.142426,9.607841,0.594854,-0.201505,0.127402,-0.141931,178
1784729915217000,-0.260850,9.891097,0.515984,-0.161443,0.087905,-0.119427,179
1784729915227000,-0.084833,10.271197,0.368505,-0.118014,0.100909,-0.074374,180
1784729915237000,0.760715,10.687666,-0.053909,-0.057876,0.181714,0.017645,181
1784729915247000,1.481719,10.720125,-0.461935,-0.027747,0.254696,0.071708,182
1784729915257000,2.151976,10.627112,-0.756564,-0.025387,0.328762,0.112509,183
1784729915267000,2.531345,10.464656,-0.751901,-0.022889,0.407021,0.137398,184
1784729915277000,2.589339,10.220136,-0.751315,0.016239,0.497155,0.150918,185
1784729915287000,2.579631,10.071350,-0.737751,0.066040,0.544390,0.163721,186
1784729915297000,2.502709,10.642550,-0.031715,-0.018434,0.548065,0.186849,187
1784729915307000,1.706962,11.060365,0.452912,-0.030457,0.506325,0.220350,188
1784729915317000,0.908960,11.506072,0.284560,0.149655,0.460400,0.247314,189
1784729915327000,0.752321,11.514702,0.400465,0.239981,0.456452,0.252099,190
1784729915337000,0.325308,11.770175,1.667344,0.184159,0.420973,0.259873,191
1784729915347000,-0.949990,12.325690,3.047260,0.018747,0.414164,0.293556,192
1784729915357000,-2.389352,11.987516,3.041226,0.214220,0.389800,0.350109,193
1784729915367000,-2.365030,11.269006,2.890207,0.402269,0.217100,0.391712,194
1784729915377000,-2.395443,10.208177,3.019690,0.373085,-0.055982,0.394546,195
1784729915387000,-2.416476,9.239586,2.967319,0.405699,-0.280707,0.420527,196
1784729915397000,-2.145989,8.064501,2.240063,0.604483,-0.358407,0.431694,197
1784729915407000,-1.150814,8.145911,2.545375,0.550190,-0.407047,0.438546,198
1784729915417000,-0.261638,8.623088,3.209541,0.290467,-0.391713,0.427119,199
1784729915427000,0.210993,9.415003,3.258838,0.308504,-0.413361,0.427594,200
1784729915437000,0.368357,10.952674,2.832097,0.512152,-0.404165,0.461916,201
1784729915447000,0.785914,12.399849,2.373516,0.508621,-0.396534,0.494127,202
1784729915457000,1.519873,12.597722,2.379426,0.282864,-0.301891,0.486931,203
1784729915467000,1.901691,11.598732,2.712193,0.104958,-0.185520,0.415715,204
1784729915477000,2.318663,10.668442,2.796479,0.131595,-0.188809,0.319609,205
1784729915487000,2.393184,10.143559,2.364255,0.161717,-0.231016,0.220752,206
1784729915497000,2.505913,9.814318,2.111478,0.088456,-0.257556,0.136225,207
1784729915507000,2.481901,9.729013,1.932843,0.053052,-0.253488,0.056989,208
1784729915517000,1.905675,9.581450,1.580805,0.002862,-0.222726,-0.010684,209
1784729915527000,1.386174,9.442272,1.446387,-0.050724,-0.191694,-0.053986,210
1784729915537000,0.789468,9.206905,1.333545,-0.058025,-0.136933,-0.086247,211
1784729915547000,0.171659,8.995055,1.292258,-0.070999,-0.063569,-0.094851,212
1784729915557000,-0.251970,8.710958,1.356694,-0.099237,-0.009973,-0.089196,213
1784729915567000,-0.542410,8.498779,1.463370,-0.105146,0.011029,-0.075079,214
1784729915577000,-0.520428,8.359203,1.549839,-0.064973,0.003332,-0.076755,215
1784729915587000,-0.582933,8.512617,1.543974,0.012974,-0.039502,-0.088184,216
1784729915597000,-0.180389,8.639009,1.377524,0.105568,-0.092718,-0.083888,217
1784729915607000,0.154320,8.766247,1.050816,0.157835,-0.109426,-0.091483,218
1784729915617000,0.559738,8.749361,0.783047,0.138528,-0.101450,-0.100223,219
1784729915627000,0.827430,8.572027,0.837496,0.098489,-0.083965,-0.102370,220
1784729915637000,0.987358,8.456388,0.970946,0.113936,-0.058173,-0.091863,221
1784729915647000,0.986373,8.590508,1.000255,0.148689,-0.043713,-0.079974,222
1784729915657000,1.009145,8.682536,0.857172,0.181532,-0.047146,-0.058316,223
1784729915667000,0.976644,8.679044,0.630614,0.185372,-0.053686,-0.035046,224
1784729915677000,0.861746,8.732804,0.430896,0.172926,-0.053010,-0.002061,225
1784729915687000,0.759514,8.843766,0.294162,0.168618,-0.051745,0.035000,226
1784729915697000,0.627178,8.925587,0.209331,0.149471,-0.059165,0.069789,227
1784729915707000,0.427188,8.935216,0.146424,0.117550,-0.075749,0.095405,228
1784729915717000,0.381732,8.926128,0.049144,0.107213,-0.096086,0.112754,229
1784729915727000,0.172138,9.012509,-0.018520,0.066767,-0.125670,0.116482,230
1784729915737000,0.016736,8.998543,-0.133150,0.039568,-0.165426,0.116399,231
1784729915748000,-0.085967,8.951054,-0.241708,0.024263,-0.205667,0.116640,232
1784729915758000,-0.160036,8.845997,-0.340125,0.006731,-0.245878,0.112691,233
1784729915768000,-0.105070,8.731432,-0.415937,-0.031222,-0.286859,0.112286,234
1784729915778000,-0.009263,8.664375,-0.404046,-0.043388,-0.335771,0.121035,235
1784729915788000,0.004694,8.697886,-0.389138,-0.044354,-0.365122,0.130929,236
1784729915798000,-0.035646,8.750149,-0.317982,-0.045554,-0.360014,0.134587,237
1784729915808000,0.063865,8.807599,-0.271892,0.020148,-0.355521,0.136535,238
1784729915818000,0.429233,9.234285,-0.135650,0.036814,-0.326088,0.130061,239
1784729915828000,1.144005,9.715223,-0.148348,0.089466,-0.293476,0.120264,240
1784729915838000,1.472718,10.228617,-0.084767,0.065386,-0.207862,0.085278,241
1784729915848000,1.699051,10.256852,0.070222,0.010732,-0.108808,0.057541,242
1784729915858000,2.118318,9.896976,0.214422,-0.001163,-0.037114,0.045239,243
1784729915868000,2.444476,9.745039,0.049650,0.054694,-0.020485,0.031883,244
1784729915878000,2.469975,10.102710,-0.399628,0.158182,-0.089349,0.008164,245
1784729915888000,2.102435,10.793131,-1.261409,0.233616,-0.236901,-0.019899,246
1784729915898000,1.392088,11.440431,-2.228518,0.143286,-0.348521,-0.043342,247
1784729915908000,-0.017026,12.470134,-2.377242,-0.229208,-0.419218,-0.075488,248
1784729915918000,-0.909698,13.093893,-1.870381,-0.479344,-0.489471,-0.114572,249
1784729915928000,-1.324474,13.136289,-1.060171,-0.340539,-0.506044,-0.176565,250
1784729915938000,-1.244537,13.318745,-0.269852,-0.238336,-0.464422,-0.239683,251
1784729915948000,0.062265,13.333796,0.792559,-0.288133,-0.436910,-0.323709,252
1784729915958000,1.843516,13.432155,1.695068,-0.274158,-0.490822,-0.412092,253
1784729915968000,3.830804,13.827897,1.855164,-0.006016,-0.509856,-0.523398,254
1784729915978000,4.452004,13.276513,1.999189,0.178548,-0.287412,-0.706499,255
1784729915988000,3.709311,11.684023,2.602198,-0.025171,-0.086478,-0.822172,0
1784729915998000,2.365298,9.894587,3.082790,-0.144980,-0.063311,-0.873714,1
1784729916008000,1.201346,8.640841,3.066097,-0.047075,-0.071134,-0.875887,2
1784729916018000,0.545626,7.993506,2.849235,-0.055632,-0.061000,-0.815074,3
1784729916028000,0.147659,7.820195,2.842762,-0.183131,-0.091113,-0.722577,4
1784729916038000,-0.338664,8.282231,3.239767,-0.387454,-0.188394,-0.622070,5
1784729916048000,-0.701053,8.564159,3.312851,-0.408314,-0.253548,-0.551651,6
1784729916058000,-0.810591,9.250317,3.235795,-0.343855,-0.287166,-0.475210,7
1784729916068000,-0.519513,10.307128,3.050816,-0.337304,-0.287358,-0.403438,8
1784729916078000,-0.291836,11.032524,2.925271,-0.301475,-0.235608,-0.343400,9
1784729916088000,-0.037230,10.905666,2.557022,-0.221807,-0.251474,-0.255292,10
1784729916098000,0.276991,10.778266,2.295995,-0.171809,-0.272039,-0.177170,11
1784729916108000,0.393921,10.889224,2.222716,-0.148320,-0.234782,-0.110918,12
1784729916118000,0.471000,10.359030,1.876970,-0.144242,-0.186124,-0.052391,13
1784729916128000,0.462339,9.798947,1.692082,-0.145706,-0.143557,-0.016419,14
1784729916138000,0.709617,9.395782,1.807525,-0.129803,-0.162256,0.025815,15
1784729916148000,0.832859,8.887022,1.900046,-0.092732,-0.199894,0.034077,16
1784729916158000,0.899387,8.576202,1.761351,-0.047375,-0.243755,0.040684,17
1784729916168000,0.998023,8.362164,1.489443,-0.043339,-0.264409,0.045096,18
1784729916178000,1.014681,8.209170,1.412460,-0.105765,-0.257907,0.036083,19
1784729916188000,0.914287,8.327942,1.573510,-0.157043,-0.266480,0.049786,20
1784729916198000,0.999871,8.476645,1.595577,-0.136085,-0.269433,0.071650,21
1784729916208000,0.973873,8.669175,1.475597,-0.075727,-0.248985,0.078253,22
1784729916218000,0.780528,8.805099,1.149269,-0.031159,-0.224642,0.084559,23
1784729916228000,0.667028,8.844790,0.896715,-0.028451,-0.192567,0.088344,24
1784729916238000,0.636590,8.691925,0.784868,-0.075064,-0.160151,0.079258,25
1784729916248000,0.621015,8.442121,0.845896,-0.136627,-0.136343,0.061030,26
1784729916258000,0.546309,8.374195,0.954080,-0.145849,-0.096114,0.045369,27
1784729916268000,0.733767,8.230626,0.953707,-0.122204,-0.067163,0.035605,28
1784729916278000,0.783692,8.183172,0.882825,-0.128753,-0.011985,0.017597,29
1784729916288000,0.936052,8.093086,0.752082,-0.137343,0.044215,0.009127,30
1784729916298000,0.984035,8.055884,0.570750,-0.133507,0.099379,-0.000608,31
1784729916308000,1.069700,8.128941,0.410059,-0.106186,0.147813,-0.007506,32
1784729916318000,1.012027,8.191202,0.408768,-0.112448,0.209878,-0.026133,33
1784729916328000,1.109769,7.947062,0.357595,-0.056991,0.281583,-0.044390,34
1784729916338000,1.010364,7.971205,0.302225,-0.006968,0.326804,-0.055881,35
1784729916348000,1.417363,8.321936,0.319236,-0.069366,0.358264,-0.041946,36
1784729916358000,1.519244,8.623539,0.443172,-0.106628,0.373479,-0.044114,37
1784729916368000,1.343395,9.029278,0.718577,-0.148514,0.379551,-0.051901,38
1784729916378000,0.781928,9.257564,0.882185,-0.142790,0.365946,-0.061349,39
1784729916388000,0.140177,9.720020,1.164614,-0.119231,0.332136,-0.046022,40
1784729916398000,-0.390614,9.723273,1.270537,-0.136586,0.290311,-0.008725,41
1784729916408000,-0.859522,9.500996,1.410836,-0.164457,0.226035,0.030093,42
1784729916418000,-0.984750,9.333854,1.253194,-0.109973,0.125606,0.077936,43
1784729916428000,-0.834178,9.562248,0.801937,0.016204,0.044030,0.129028,44
1784729916438000,-0.388254,10.079625,0.234832,0.166657,0.036642,0.174544,45
1784729916448000,0.494457,10.771584,-0.526432,0.329755,0.104121,0.197239,46
1784729916458000,1.674776,11.321209,-1.462794,0.423959,0.195573,0.182277,47
1784729916468000,3.040725,11.619068,-1.953445,0.366025,0.297242,0.123909,48
1784729916478000,4.064738,11.639266,-1.830069,0.280665,0.410014,0.028362,49
1784729916488000,4.830882,12.298238,-0.323371,0.104712,0.495784,-0.021897,50
1784729916498000,4.109848,12.300838,0.636986,0.022167,0.622287,-0.012476,51
1784729916508000,2.394975,12.397287,0.860601,0.153355,0.696475,0.054046,52
1784729916518000,1.040933,12.843703,1.215235,0.109640,0.639856,0.164938,53
1784729916528000,-0.263928,13.174583,2.454236,-0.072993,0.534273,0.355019,54
1784729916538000,-2.411273,13.074941,3.260977,-0.087474,0.560008,0.552117,55
1784729916548000,-4.150656,12.842366,3.156137,0.302809,0.486755,0.704653,56
1784729916558000,-3.678002,11.744898,3.140414,0.383933,0.296538,0.803345,57
1784729916568000,-2.446543,9.940889,2.786802,0.327474,0.156735,0.811362,58
1784729916578000,-1.321494,8.524062,2.623940,0.341180,0.107106,0.749359,59
1784729916588000,-0.369021,8.408787,2.922544,0.296259,0.006021,0.686920,60
1784729916598000,0.174805,8.579084,2.673597,0.208121,-0.094233,0.623125,61
1784729916608000,0.449431,8.659879,2.076213,0.188804,-0.096501,0.557425,62
1784729916618000,0.791747,9.236596,1.981949,0.135100,-0.069302,0.498315,63
1784729916628000,1.317778,10.123598,2.186693,0.073943,-0.015574,0.470196,64
1784729916638000,1.699533,10.550771,2.246547,0.059905,0.082563,0.449677,65
1784729916648000,1.821110,10.492656,2.374400,0.028455,0.160166,0.408578,66
1784729916658000,1.629225,10.241742,2.569979,-0.001917,0.199007,0.349438,67
1784729916668000,1.358574,10.143785,2.831284,0.013267,0.218083,0.295018,68
1784729916678000,1.047498,10.085891,2.798767,0.097641,0.196769,0.260480,69
1784729916688000,0.830658,9.943597,2.470723,0.141664,0.170038,0.221441,70
1784729916698000,0.714350,9.633472,2.163907,0.106573,0.149098,0.174224,71
1784729916708000,0.703961,9.274512,2.032579,0.059047,0.149706,0.139119,72
1784729916718000,0.574041,8.905863,1.883625,0.050276,0.168377,0.104158,73
1784729916728000,0.311597,8.513429,1.663827,0.052426,0.198038,0.067810,74
1784729916738000,0.094848,8.206908,1.527210,0.036316,0.231418,0.044956,75
1784729916748000,-0.136609,8.110307,1.573488,0.018854,0.249690,0.039227,76
1784729916758000,-0.243527,8.258567,1.614437,0.063083,0.234561,0.038627,77
1784729916769000,-0.283165,8.379274,1.469804,0.118157,0.215003,0.031546,78
1784729916779000,-0.134791,8.466905,1.296436,0.142738,0.170615,0.020028,79
1784729916789000,0.108645,8.698424,1.150170,0.153286,0.145511,0.016979,80
1784729916799000,0.625903,8.632972,1.014833,0.162734,0.128616,-0.003066,81
1784729916809000,0.661025,8.648882,0.770945,0.170141,0.133621,-0.034974,82
1784729916819000,0.602784,8.649742,0.610942,0.173316,0.145804,-0.045752,83
1784729916829000,0.591451,8.472898,0.504311,0.177448,0.147641,-0.053248,84
1784729916839000,0.626878,8.415800,0.437807,0.160012,0.138308,-0.050709,85
1784729916849000,0.571972,8.325162,0.339956,0.123479,0.124130,-0.038255,86
1784729916859000,0.531599,8.153008,0.242173,0.084316,0.094973,-0.020813,87
1784729916869000,0.443888,8.048103,0.114584,0.065008,0.069956,-0.001132,88
1784729916879000,0.436431,8.110961,0.028201,0.025135,0.048741,0.023096,89
1784729916889000,0.316429,8.297888,0.016135,-0.015446,0.016080,0.045364,90
1784729916899000,0.097118,8.312252,-0.042466,-0.044962,-0.012959,0.058934,91
1784729916909000,0.006715,8.389054,-0.078184,-0.033513,-0.068690,0.078447,92
1784729916919000,-0.197092,8.480473,-0.184088,-0.014889,-0.127834,0.100518,93
1784729916929000,-0.381811,8.557502,-0.284737,0.070066,-0.200250,0.124744,94
1784729916939000,-0.545718,8.734594,-0.269201,0.107073,-0.235608,0.134037,95
1784729916949000,-0.689541,8.858038,-0.099686,0.158127,-0.241608,0.141660,96
1784729916959000,-0.467744,9.264279,0.205514,0.178764,-0.227193,0.147987,97
1784729916969000,0.227851,9.840048,0.370339,0.167520,-0.183159,0.149228,98
1784729916979000,0.790375,10.460186,0.296513,0.199414,-0.158169,0.140424,99
1784729916989000,1.379804,10.769156,0.130952,0.161889,-0.145570,0.116093,100
1784729916999000,2.101081,10.675817,-0.095096,0.162265,-0.112460,0.077620,101
1784729917009000,2.772937,10.525597,-0.447526,0.204133,-0.099504,0.024915,102
1784729917019000,2.650494,10.662495,-0.916013,0.234560,-0.109858,-0.052142,103
1784729917029000,1.973360,10.766457,-1.649084,0.255794,-0.204708,-0.114248,104
1784729917039000,0.690315,11.739089,-1.842692,0.107881,-0.302138,-0.164329,105
1784729917049000,-0.052374,12.855006,-1.781268,-0.101356,-0.413391,-0.199406,106
1784729917059000,-0.667592,13.767647,-2.178207,0.078114,-0.473415,-0.243614,107
1784729917069000,-0.566659,14.750377,-2.061232,-0.043832,-0.412811,-0.312494,108
1784729917079000,-0.169664,14.778047,-0.163494,-0.475385,-0.244623,-0.373496,109
1784729917089000,1.510227,14.473798,2.261674,-0.601191,-0.245133,-0.413538,110
1784729917099000,3.726321,14.657333,2.681520,-0.206758,-0.313570,-0.530708,111
1784729917109000,4.473277,13.955053,2.429762,-0.010043,-0.144354,-0.712312,112
1784729917119000,3.374385,11.781143,3.107441,-0.178521,0.014226,-0.809589,113
1784729917129000,2.230253,9.800830,3.482168,-0.108229,0.009059,-0.811832,114
1784729917139000,1.172075,8.907168,3.436090,-0.079616,-0.062504,-0.799829,115
1784729917149000,0.224582,8.622027,3.524988,-0.271257,-0.136760,-0.800260,116
1784729917159000,-0.414065,8.739734,3.710116,-0.457274,-0.231077,-0.796845,117
1784729917169000,-0.261449,8.900322,3.369087,-0.417053,-0.314301,-0.759532,118
1784729917179000,-0.424761,9.419332,3.155498,-0.413501,-0.322695,-0.724606,119
1784729917189000,-0.929792,9.520105,3.003198,-0.440537,-0.245874,-0.693888,120
1784729917199000,-1.321351,9.495919,2.925455,-0.389879,-0.204632,-0.607026,121
1784729917209000,-1.374750,9.683928,2.751909,-0.275838,-0.218826,-0.491535,122
1784729917219000,-0.862355,9.840277,2.420442,-0.177842,-0.250947,-0.372895,123
1784729917229000,0.058894,10.101972,2.234721,-0.171839,-0.264187,-0.262895,124
1784729917239000,0.916317,10.487982,2.095803,-0.182607,-0.242291,-0.179459,125
1784729917249000,1.489776,10.528970,1.823131,-0.180679,-0.180978,-0.126336,126
1784729917259000,1.873508,10.044939,1.865064,-0.251539,-0.085017,-0.094546,127
1784729917269000,1.868547,9.202992,2.293785,-0.311189,-0.019273,-0.069454,128
1784729917279000,1.838130,8.529712,2.583241,-0.253464,-0.009887,-0.049454,129
1784729917289000,1.776830,8.180698,2.378571,-0.150558,-0.016094,-0.039050,130
1784729917299000,1.653370,8.043862,1.966605,-0.124335,-0.004006,-0.025923,131
1784729917309000,1.577228,8.164947,1.748977,-0.161526,0.022344,0.000842,132
1784729917319000,1.758058,8.252368,1.619686,-0.176679,0.076130,0.049076,133
1784729917329000,1.890580,8.176495,1.512479,-0.189972,0.135730,0.091391,134
1784729917339000,1.933861,8.186182,1.508868,-0.188213,0.169385,0.106801,135
1784729917349000,1.522885,8.363439,1.426595,-0.165812,0.205894,0.137138,136
1784729917359000,1.159410,8.493786,1.182146,-0.147338,0.223093,0.149283,137
1784729917369000,0.834635,8.581083,0.928955,-0.149310,0.248300,0.149007,138
1784729917379000,0.604071,8.586558,0.749977,-0.153949,0.285024,0.142293,139
1784729917389000,0.519192,8.533984,0.694693,-0.174672,0.315405,0.128015,140
1784729917399000,0.444664,8.293365,0.807007,-0.205673,0.340135,0.099718,141
1784729917409000,0.575340,8.019230,0.967868,-0.195689,0.365187,0.070688,142
1784729917419000,0.713698,7.808149,1.013940,-0.129837,0.407978,0.031459,143
1784729917429000,0.945864,7.685304,0.769953,-0.052317,0.455472,-0.010149,144
1784729917439000,0.940313,7.557782,0.437989,-0.015082,0.501417,-0.043622,145
1784729917449000,0.815522,7.384837,0.448395,-0.033941,0.567432,-0.065244,146
1784729917459000,0.510709,6.919443,0.385638,0.024860,0.618026,-0.089644,147
1784729917469000,0.387502,6.981977,0.320181,0.099634,0.610541,-0.086652,148
1784729917479000,0.456982,7.122876,0.039283,0.103307,0.568699,-0.084087,149
1784729917489000,0.729641,7.487786,0.052773,0.031360,0.509196,-0.091587,150
1784729917499000,0.980159,7.999620,0.354350,0.011994,0.436500,-0.113073,151
1784729917509000,0.746047,8.631730,0.456230,0.074782,0.340464,-0.143661,152
1784729917519000,0.199852,9.637553,0.536860,0.090123,0.255231,-0.148167,153
1784729917529000,-0.588580,10.197321,0.546871,0.026380,0.184716,-0.139291,154
1784729917539000,-1.450569,10.148336,0.470911,-0.047269,0.120971,-0.127680,155
1784729917549000,-1.974888,9.879595,0.345460,-0.063017,0.026601,-0.105620,156
1784729917559000,-1.965193,10.177123,0.322875,-0.002588,-0.105292,-0.059080,157
1784729917569000,-1.521138,10.893377,0.183849,0.101737,-0.166716,0.019637,158
1784729917579000,-0.875737,11.278467,-0.661762,0.256487,-0.095956,0.101112,159
1784729917589000,0.671625,11.615899,-1.301082,0.335919,-0.011187,0.159967,160
1784729917599000,2.139692,12.009093,-1.663797,0.317003,0.070524,0.169337,161
1784729917609000,3.496978,13.168256,-0.216228,0.055950,0.155363,0.194076,162
1784729917619000,4.009153,13.242249,0.388304,0.042164,0.209334,0.226954,163
1784729917629000,3.842997,13.722584,1.024385,0.146118,0.255162,0.248854,164
1784729917639000,3.242337,14.037358,1.950756,0.058407,0.267200,0.290437,165
1784729917650000,1.832844,13.571779,3.203058,-0.136290,0.320294,0.379402,166
1784729917659000,-0.108733,13.495961,3.295119,0.073820,0.315190,0.516329,167
1784729917669000,-1.777465,13.691343,3.030578,0.350123,0.187675,0.676319,168
1784729917679000,-1.972213,12.098478,3.052767,0.285147,0.083141,0.802980,169
1784729917689000,-1.158728,10.108021,3.277903,0.164405,0.062577,0.866696,170
1784729917699000,-0.955703,9.142040,3.654056,0.117930,-0.043041,0.899484,171
1784729917709000,-1.657483,8.858634,3.523823,0.194222,-0.179809,0.881316,172
1784729917719000,-1.777918,8.663815,3.183736,0.268565,-0.265660,0.819740,173
1784729917729000,-1.211234,9.161273,2.773422,0.312935,-0.268207,0.720667,174
1784729917739000,-0.181750,10.229858,2.435287,0.317856,-0.270448,0.618592,175
1784729917749000,0.810209,11.241004,2.067118,0.298735,-0.293540,0.519317,176
1784729917759000,1.751713,11.464590,1.843373,0.189616,-0.274322,0.419006,177
1784729917769000,2.140298,10.552434,2.095031,0.018951,-0.189927,0.291498,178
1784729917779000,2.122429,9.820061,2.643881,0.015430,-0.128985,0.171879,179
1784729917789000,1.826092,9.665199,2.789038,0.142424,-0.092189,0.096223,180
1784729917800000,1.703288,9.581297,2.348487,0.227497,-0.064025,0.045733,181
1784729917810000,1.390460,9.395658,2.022520,0.138350,-0.043174,0.016932,182
1784729917820000,0.888867,8.848364,1.963807,0.018364,-0.027344,0.005656,183
1784729917829000,0.579587,8.367537,2.073732,-0.019955,-0.023711,0.013164,184
1784729917840000,0.103660,8.142151,1.930533,0.032200,-0.039597,0.034104,185
1784729917850000,-0.260349,8.191911,1.527298,0.072332,-0.049876,0.057832,186
1784729917860000,-0.436598,8.280504,1.100405,0.051536,-0.047408,0.078786,187
1784729917870000,-0.535131,8.205194,0.833394,-0.024759,-0.045967,0.102325,188
1784729917880000,-0.540950,8.147371,0.876228,-0.077846,-0.038951,0.104768,189
1784729917890000,-0.430310,8.213683,1.047492,-0.080072,-0.057748,0.092883,190
1784729917900000,-0.232010,8.242048,1.172925,-0.015365,-0.103275,0.057408,191
1784729917910000,-0.109241,8.257290,1.065814,0.087255,-0.139296,0.017971,192
1784729917920000,0.190319,8.283348,0.804998,0.175455,-0.162294,-0.017143,193
1784729917930000,0.513066,8.266075,0.578241,0.198293,-0.172495,-0.062352,194
1784729917940000,0.745548,8.276546,0.498041,0.167726,-0.169311,-0.111005,195
1784729917950000,0.821287,8.142080,0.547548,0.120202,-0.155470,-0.150502,196
1784729917960000,0.948087,7.983309,0.665542,0.095570,-0.165850,-0.161565,197
1784729917970000,0.903776,7.920601,0.712133,0.091392,-0.170451,-0.163019,198
1784729917980000,0.838508,7.911339,0.638334,0.097312,-0.180276,-0.151903,199
1784729917990000,0.828395,7.893117,0.474736,0.095438,-0.179928,-0.133374,200
1784729918000000,0.948711,7.995264,0.271868,0.096564,-0.169327,-0.107096,201
1784729918010000,1.032249,8.112116,0.005655,0.134059,-0.145371,-0.071587,202
1784729918020000,0.960020,8.309774,-0.182759,0.135460,-0.093017,-0.037373,203
1784729918030000,1.028096,8.325594,-0.401762,0.141580,-0.048737,0.004258,204
1784729918040000,1.027265,8.484849,-0.564418,0.164949,-0.004314,0.045051,205
1784729918050000,1.010668,8.715734,-0.679196,0.159612,0.026734,0.083348,206
1784729918060000,0.835659,8.969234,-0.610837,0.149285,0.057277,0.112226,207
1784729918070000,0.557603,9.188452,-0.454124,0.125866,0.085026,0.126043,208
1784729918080000,0.527028,9.355927,-0.396662,0.158796,0.088616,0.134927,209
1784729918090000,0.649728,10.179839,-0.183696,0.129012,0.104499,0.129447,210
1784729918100000,0.964389,10.784455,-0.139339,0.094985,0.102590,0.123204,211
1784729918110000,1.104176,11.210762,-0.004302,0.000607,0.089548,0.097558,212
1784729918120000,1.222293,11.244117,0.066197,-0.075762,0.067554,0.064830,213
1784729918130000,1.344450,11.110471,-0.007901,-0.034595,0.046503,0.028415,214
1784729918140000,1.561839,11.076096,-0.612061,0.045581,-0.026931,-0.012276,215
1784729918150000,1.529389,11.239073,-1.404564,0.045774,-0.120263,-0.070856,216
1784729918160000,1.211891,11.348360,-2.123238,0.016218,-0.284416,-0.121160,217
1784729918170000,0.281996,11.494349,-2.738031,-0.073303,-0.345140,-0.184362,218
1784729918180000,-0.866052,12.581768,-2.039284,-0.335527,-0.422976,-0.219966,219
1784729918190000,-0.918874,12.986201,-1.510921,-0.327169,-0.462239,-0.289930,220
1784729918200000,-0.416178,13.492045,-0.938561,-0.134447,-0.412206,-0.376433,221
1784729918210000,0.616256,13.983689,-0.246516,-0.212919,-0.359878,-0.444398,222
1784729918220000,2.144264,14.262375,1.706326,-0.400451,-0.316523,-0.502384,223
1784729918230000,3.852208,14.709844,3.558983,-0.296098,-0.319986,-0.631584,224
1784729918240000,4.260104,14.041348,3.975368,0.039960,-0.159884,-0.825067,225
1784729918250000,3.102053,11.632601,3.805456,0.039276,0.018789,-0.912890,226
1784729918260000,2.054617,10.174510,4.304845,-0.120717,0.091413,-0.905127,227
1784729918270000,0.766116,9.267559,4.809577,-0.174592,0.133079,-0.875612,228
1784729918280000,-0.160363,8.624111,4.667150,-0.245269,0.106819,-0.831745,229
1784729918290000,-0.411734,8.325416,4.015863,-0.264440,0.029886,-0.782882,230
1784729918300000,-0.604718,8.510512,3.488067,-0.286540,-0.078785,-0.717190,231
1784729918310000,-1.320472,8.913326,3.297728,-0.420840,-0.135377,-0.669702,232
1784729918320000,-1.891431,9.622547,3.242089,-0.444150,-0.202958,-0.589167,233
1784729918330000,-1.878688,10.358527,2.889987,-0.374596,-0.276408,-0.484311,234
1784729918340000,-1.701851,10.568295,2.352926,-0.244935,-0.312088,-0.384161,235
1784729918350000,-0.848506,10.757739,2.198725,-0.234165,-0.339025,-0.276191,236
1784729918360000,-0.012874,10.706477,2.187161,-0.242049,-0.332149,-0.180464,237
1784729918370000,0.367247,10.228621,1.998541,-0.244929,-0.312847,-0.115636,238
1784729918380000,0.883023,9.870133,1.938843,-0.247127,-0.290469,-0.068830,239
1784729918390000,1.254981,9.419169,2.062221,-0.248484,-0.249278,-0.062972,240
1784729918400000,1.396829,8.886313,2.179151,-0.217014,-0.242079,-0.069964,241
1784729918410000,1.267245,8.397784,2.024935,-0.167989,-0.257690,-0.075400,242
1784729918420000,1.098644,8.102084,1.697575,-0.131589,-0.252557,-0.048625,243
1784729918430000,0.888196,7.863096,1.498969,-0.149161,-0.216875,-0.022853,244
1784729918440000,0.873674,7.795867,1.507923,-0.144563,-0.189822,0.020603,245
1784729918450000,0.860248,7.815262,1.469228,-0.107865,-0.157864,0.057613,246
1784729918460000,1.108985,7.830987,1.317456,-0.053053,-0.147606,0.099855,247
1784729918470000,0.989377,8.047900,1.103847,-0.007483,-0.129168,0.122074,248
1784729918480000,0.896115,8.342172,0.795209,0.020530,-0.094070,0.129071,249
1784729918490000,0.822351,8.530983,0.481875,0.012148,-0.039690,0.129606,250
1784729918500000,0.813387,8.498634,0.275038,-0.021490,0.022631,0.120449,251
1784729918510000,0.794567,8.431514,0.264671,-0.067434,0.074723,0.095251,252
1784729918520000,0.861511,8.268430,0.285021,-0.072327,0.124296,0.067240,253
1784729918530000,0.921075,8.125036,0.218822,-0.038188,0.182238,0.035260,254
1784729918540000,0.887828,7.977424,0.030093,0.000120,0.260258,0.004543,255
1784729918550000,0.721806,7.877942,-0.224405,0.020997,0.372559,-0.028400,0
1784729918560000,0.656193,7.710259,-0.274825,0.036167,0.429484,-0.034130,1
1784729918570000,0.745160,7.455590,-0.172618,0.004277,0.476257,-0.035727,2
1784729918580000,0.645680,7.511091,0.141861,-0.085193,0.467690,-0.048301,3
1784729918590000,0.821275,7.592496,0.214079,-0.054547,0.453642,-0.052373,4
1784729918600000,1.009399,7.951788,0.340537,-0.075963,0.366502,-0.065187,5
1784729918610000,0.672714,8.392493,0.338100,-0.010540,0.260090,-0.088822,6
1784729918620000,0.041965,9.302634,0.353682,-0.023080,0.171730,-0.089094,7
1784729918630000,-0.570584,9.964173,0.239129,-0.037083,0.123515,-0.092478,8
1784729918640000,-0.942559,10.412920,0.485472,-0.129396,0.096945,-0.086280,9
1784729918650000,-1.412514,10.318844,0.842321,-0.198286,0.029015,-0.056201,10
1784729918660000,-1.451168,9.938555,1.060680,-0.217256,-0.106213,-0.021951,11
1784729918670000,-1.456446,9.685237,0.910695,-0.104633,-0.238734,0.014154,12
1784729918680000,-1.254782,10.014086,0.518813,0.057822,-0.301300,0.081281,13
1784729918690000,-0.585869,10.484365,-0.128970,0.204464,-0.235064,0.151855,14
1784729918700000,0.615352,11.041802,-0.762239,0.266400,-0.140387,0.184471,15
1784729918710000,2.323838,11.548072,-1.516650,0.299346,-0.022541,0.176086,16
1784729918720000,4.185629,12.213250,-1.531700,0.233793,0.093654,0.145689,17
1784729918730000,5.659924,13.112818,0.047613,-0.087230,0.234392,0.153889,18
1784729918740000,5.266488,12.741989,0.986419,-0.064369,0.354284,0.160459,19
1784729918750000,4.085015,12.960917,1.733693,0.011417,0.352070,0.204596,20
1784729918760000,2.665784,13.199148,2.393084,0.069306,0.310267,0.290769,21
1784729918770000,0.678507,13.572970,3.474836,-0.090101,0.365337,0.431410,22
1784729918780000,-2.365574,13.555416,3.134430,0.170592,0.430795,0.546480,23
1784729918790000,-3.783345,12.743913,2.882231,0.394664,0.327981,0.666394,24
1784729918800000,-2.857230,10.042919,3.251634,0.359207,0.284174,0.714609,25
1784729918810000,-1.242033,8.225478,3.647645,0.354491,0.272858,0.698447,26
1784729918821000,-0.611458,7.970441,3.965940,0.318471,0.242487,0.673562,27
1784729918831000,-0.683113,8.540279,4.100711,0.218097,0.100823,0.664411,28
1784729918841000,-1.422872,9.291842,3.334897,0.277219,-0.008552,0.645153,29
1784729918851000,-1.688177,10.425682,2.943339,0.293544,-0.035180,0.628805,30
1784729918861000,-1.244799,11.425982,2.627745,0.326668,-0.051109,0.640570,31
1784729918871000,-0.504301,11.851995,2.183365,0.319271,-0.021448,0.648264,32
1784729918881000,0.601347,11.337152,1.970702,0.185493,-0.016510,0.627854,33
1784729918891000,1.569790,10.264837,1.901054,0.049027,-0.030237,0.533192,34
1784729918901000,2.180829,9.652037,1.886112,0.033689,-0.079959,0.409336,35
1784729918911000,2.511595,9.677596,1.717356,0.105546,-0.133725,0.296664,36
1784729918921000,2.475411,9.751125,1.442985,0.130852,-0.131817,0.196290,37
1784729918931000,2.011900,9.483226,1.194313,0.068571,-0.102111,0.112459,38
1784729918941000,1.449180,9.045374,1.264046,-0.036036,-0.077962,0.035263,39
1784729918951000,0.750020,8.467672,1.420831,-0.079366,-0.065683,-0.015390,40
1784729918961000,0.110493,7.919329,1.497690,-0.054509,-0.045762,-0.036692,41
1784729918971000,-0.564803,7.664223,1.454704,-0.021739,-0.049331,-0.053617,42
1784729918981000,-0.976269,7.664938,1.218073,0.019124,-0.056009,-0.043689,43
1784729918991000,-0.981879,7.742620,1.059772,-0.009968,-0.043023,-0.045975,44
1784729919001000,-0.914725,7.886670,1.052521,-0.013865,-0.042969,-0.053307,45
1784729919011000,-0.660476,8.093390,1.045694,0.015170,-0.071946,-0.056108,46
1784729919021000,-0.184076,8.161652,0.996224,0.065161,-0.102943,-0.068771,47
1784729919031000,0.486291,8.177916,0.874887,0.111772,-0.129393,-0.080374,48
1784729919041000,0.925949,8.169724,0.766518,0.126212,-0.117079,-0.095054,49
1784729919051000,1.114395,8.103157,0.723258,0.131686,-0.091741,-0.101807,50
1784729919061000,1.284712,8.003218,0.640970,0.159995,-0.066911,-0.098917,51
1784729919071000,1.326322,8.080800,0.512737,0.178312,-0.029101,-0.084910,52
1784729919081000,1.262498,8.244610,0.372430,0.184654,0.004404,-0.053193,53
1784729919091000,1.050526,8.446703,0.204321,0.167370,0.027213,-0.004010,54
1784729919101000,0.740026,8.529198,-0.043707,0.136512,0.038981,0.049251,55
1784729919111000,0.536516,8.564213,-0.341890,0.087623,0.040330,0.099261,56
1784729919121000,0.444054,8.646441,-0.483279,0.014919,0.024403,0.140394,57
1784729919131000,0.290147,8.521356,-0.463858,-0.033043,0.001447,0.161087,58
1784729919141000,0.082024,8.339379,-0.570947,-0.019260,-0.051219,0.164664,59
1784729919151000,0.088684,8.344617,-0.642774,-0.022937,-0.124200,0.178845,60
1784729919161000,-0.084418,8.579367,-0.646464,-0.021833,-0.167269,0.186757,61
1784729919171000,-0.099141,8.910343,-0.655163,-0.023431,-0.209236,0.196818,62
1784729919181000,-0.208234,9.230832,-0.541571,-0.043433,-0.258012,0.188262,63
1784729919191000,-0.365745,9.693984,-0.236643,-0.020923,-0.281037,0.161717,64
1784729919201000,0.362400,10.316441,0.150108,0.031379,-0.287330,0.145536,65
1784729919211000,0.947391,10.734737,0.148115,0.150685,-0.249011,0.132370,66
1784729919221000,1.295164,11.148477,0.038952,0.141025,-0.196180,0.117089,67
1784729919231000,1.990938,11.024853,0.056993,0.114170,-0.151915,0.087420,68
1784729919241000,2.746554,10.783000,-0.187930,0.065646,-0.138136,0.052698,69
1784729919251000,2.740856,10.709331,-0.702150,0.035552,-0.149256,0.002099,70
1784729919261000,2.311143,10.683659,-1.342711,0.076375,-0.258427,-0.047494,71
1784729919271000,1.563185,11.038386,-2.321572,0.151298,-0.405629,-0.106737,72
1784729919281000,0.212756,12.655299,-1.995868,-0.207694,-0.491331,-0.171181,73
1784729919291000,-0.338984,13.405529,-1.685907,-0.376935,-0.539698,-0.265888,74
1784729919301000,-0.272000,14.048924,-0.980558,-0.245470,-0.484519,-0.392594,75
1784729919311000,0.412852,13.893240,0.381536,-0.220543,-0.359139,-0.514572,76
1784729919321000,1.516318,14.294358,2.592449,-0.280680,-0.262673,-0.620937,77
1784729919331000,3.343357,14.769132,3.925001,-0.258632,-0.191431,-0.772324,78
1784729919341000,4.898309,13.778484,4.000933,0.131858,-0.056787,-0.958532,79
1784729919351000,3.757026,11.154392,3.753798,0.144345,0.112885,-1.052293,80
1784729919361000,2.027463,9.248788,4.300497,-0.050177,0.198109,-1.016586,81
1784729919371000,0.688950,7.994338,4.351178,-0.038964,0.185969,-0.949506,82
1784729919381000,-0.022440,7.317087,3.508498,-0.015687,0.091396,-0.883209,83
1784729919391000,-1.085951,8.006704,3.382049,-0.282600,-0.063578,-0.842191,84
1784729919401000,-2.255070,8.727515,3.622640,-0.497316,-0.171648,-0.807967,85
1784729919411000,-2.071596,9.766703,3.146625,-0.318982,-0.324104,-0.688212,86
1784729919421000,-1.906024,11.009897,2.238781,-0.245565,-0.297671,-0.594172,87
1784729919431000,-1.738975,11.673222,2.048958,-0.304521,-0.174804,-0.501083,88
1784729919441000,-0.976916,11.637345,2.650110,-0.292824,-0.144589,-0.377978,89
1784729919451000,0.018321,11.197979,2.617266,-0.181644,-0.186279,-0.265797,90
1784729919461000,0.410857,10.933021,2.122503,-0.028007,-0.179068,-0.191447,91
1784729919471000,0.585737,10.663619,1.506687,0.048349,-0.160235,-0.132780,92
1784729919481000,0.834621,10.098794,1.386257,-0.038709,-0.165419,-0.088353,93
1784729919491000,0.962663,9.262656,1.684095,-0.133998,-0.173366,-0.058546,94
1784729919501000,0.976189,8.547544,1.763283,-0.112050,-0.183335,-0.023927,95
1784729919511000,1.087856,8.112494,1.558080,-0.058640,-0.184421,0.006851,96
1784729919521000,1.407148,7.970772,1.287528,-0.027764,-0.160415,0.033491,97
1784729919531000,1.467373,7.847832,1.010153,-0.048071,-0.130318,0.044581,98
1784729919541000,1.438409,7.637731,0.845302,-0.096740,-0.123339,0.053289,99
1784729919551000,1.281256,7.583864,0.984957,-0.126852,-0.098660,0.080477,100
1784729919561000,1.106186,7.587842,1.071543,-0.091815,-0.071718,0.103836,101
1784729919571000,0.797727,7.746475,0.924704,-0.038863,-0.045836,0.131646,102
1784729919581000,0.545221,7.939518,0.654644,-0.017040,0.009338,0.133219,103
1784729919591000,0.469838,7.984007,0.412728,-0.060023,0.048034,0.128749,104
1784729919601000,0.418429,7.921864,0.363099,-0.131499,0.103968,0.101315,105
1784729919611000,0.587617,7.854144,0.506587,-0.181948,0.111420,0.067234,106
1784729919621000,0.761933,7.710842,0.457848,-0.168542,0.124068,0.022439,107
1784729919631000,0.936302,7.749887,0.395420,-0.154656,0.136762,-0.026065,108
1784729919641000,0.950092,7.807347,0.415219,-0.136965,0.168850,-0.063776,109
1784729919651000,0.883337,7.720969,0.403500,-0.079941,0.228859,-0.110988,110
1784729919661000,0.772602,7.595950,0.424070,-0.038760,0.249367,-0.122546,111
1784729919671000,0.774648,7.467980,0.169134,0.070743,0.277237,-0.130651,112
1784729919681000,0.769651,7.866178,0.151354,0.025646,0.269472,-0.133454,113
1784729919691000,0.861430,8.172446,0.294246,-0.034279,0.265876,-0.109615,114
1784729919701000,0.872362,8.435568,0.410808,-0.052912,0.270595,-0.083441,115
1784729919711000,0.773433,8.928940,0.491735,-0.090500,0.270746,-0.071675,116
1784729919721000,0.251746,9.565458,0.576372,-0.073217,0.272542,-0.066719,117
1784729919731000,-0.088230,10.173338,0.689744,-0.049540,0.288980,-0.034571,118
1784729919741000,-0.182404,10.164002,0.619976,-0.064341,0.295925,-0.000036,119
1784729919751000,-0.178346,10.087067,0.653395,-0.086593,0.243653,0.045405,120
1784729919761000,0.126596,10.348381,0.355229,-0.026169,0.148297,0.104708,121
1784729919771000,0.507347,11.086833,-0.303977,0.090293,0.108777,0.180826,122
1784729919781000,1.011093,11.539397,-1.244327,0.272740,0.176640,0.233300,123
1784729919791000,1.893347,12.195449,-1.616808,0.304797,0.297702,0.243921,124
1784729919801000,2.877428,13.633655,-0.418166,-0.069766,0.400655,0.262525,125
1784729919811000,2.531587,13.458062,-0.029522,-0.133861,0.443900,0.297489,126
1784729919821000,2.186381,13.293693,0.887368,-0.159579,0.385236,0.348357,127
1784729919831000,1.408257,13.187433,2.388368,-0.085274,0.227082,0.394974,128
1784729919841000,0.183944,13.566561,4.402772,-0.084863,0.184670,0.495919,129
1784729919852000,-1.832834,13.413838,3.700253,0.258796,0.251025,0.638575,130
1784729919861000,-2.774466,12.144576,2.335344,0.497928,0.172030,0.740484,131
1784729919872000,-1.962672,10.264084,2.618486,0.402627,0.121591,0.777159,132
1784729919882000,-1.355609,8.846844,3.176490,0.353522,0.113956,0.760155,133
1784729919892000,-0.211953,9.245486,4.212051,0.148145,0.072015,0.781768,134
1784729919902000,-0.231900,9.860559,4.017060,0.019102,-0.017623,0.815299,135
1784729919912000,-1.388746,10.572039,3.417647,0.124673,-0.084555,0.824819,136
1784729919922000,-1.899780,11.358669,3.267873,0.211268,-0.157159,0.816247,137
1784729919932000,-0.972595,11.511383,2.861005,0.272061,-0.166644,0.784097,138
1784729919942000,0.462813,11.026666,2.517991,0.134576,-0.110146,0.712902,139
1784729919952000,1.437632,10.393947,2.728732,-0.012892,-0.096221,0.598537,140
1784729919962000,2.177865,9.497069,2.932193,-0.002488,-0.119546,0.489225,141
1784729919972000,2.661894,9.102781,2.434557,0.146325,-0.136060,0.378425,142
1784729919982000,3.006568,9.385878,1.714987,0.230993,-0.086740,0.281695,143
1784729919992000,2.835803,9.652173,1.250522,0.142223,0.006926,0.200717,144
1784729920002000,2.189134,9.272322,1.222214,-0.011188,0.095184,0.148441,145
1784729920012000,1.564728,8.793930,1.635867,-0.084838,0.133964,0.115972,146
1784729920022000,0.851713,8.408259,1.759424,-0.018427,0.167426,0.091120,147
1784729920032000,0.085053,8.250031,1.531920,0.070881,0.195305,0.068573,148
1784729920042000,-0.516730,8.073277,1.241510,0.074471,0.180549,0.058120,149
1784729920052000,-0.903062,7.987928,0.966798,0.042260,0.155217,0.046320,150
1784729920062000,-1.130732,7.868215,0.869035,0.001583,0.137349,0.027707,151
1784729920072000,-0.991566,7.795364,1.059721,-0.005295,0.122105,0.002646,152
1784729920082000,-0.690010,7.882050,1.087296,0.038235,0.111928,-0.030774,153
1784729920092000,-0.169555,7.945785,1.005368,0.109919,0.075241,-0.082868,154
1784729920102000,0.128205,8.072187,0.807319,0.153652,0.043862,-0.116558,155
1784729920112000,0.558915,8.193685,0.665608,0.180731,0.015104,-0.139942,156
1784729920122000,0.710214,8.280885,0.564341,0.193941,0.017633,-0.151837,157
1784729920132000,0.780657,8.329734,0.436762,0.198307,0.033103,-0.148406,158
1784729920142000,0.805903,8.464415,0.380342,0.176784,0.038491,-0.132761,159
1784729920152000,0.735487,8.512642,0.316234,0.146779,0.033273,-0.097277,160
1784729920162000,0.612413,8.570410,0.245960,0.125240,0.023946,-0.047621,161
1784729920172000,0.425878,8.585748,0.034581,0.123906,0.007893,0.002287,162
1784729920182000,0.267314,8.534873,-0.325164,0.111854,-0.014441,0.042949,163
1784729920192000,0.206525,8.464275,-0.567143,0.069362,-0.037408,0.068302,164
1784729920202000,0.180322,8.133752,-0.645962,-0.001730,-0.054622,0.072422,165
1784729920212000,0.187020,7.792421,-0.512673,-0.048424,-0.076767,0.072998,166
1784729920222000,0.245281,7.638023,-0.343668,-0.025056,-0.122562,0.083719,167
1784729920232000,0.038730,7.828459,-0.165958,0.020468,-0.165420,0.102996,168
1784729920242000,-0.269685,8.234397,0.038695,0.043735,-0.175729,0.118038,169
1784729920252000,-0.384439,8.832975,0.167629,0.177373,-0.175539,0.141031,170
1784729920262000,-0.071420,9.774192,0.069211,0.220656,-0.141558,0.155698,171
1784729920272000,0.688488,10.801542,0.131880,0.223470,-0.074139,0.176487,172
1784729920282000,1.545126,11.095098,0.213457,0.117073,0.018523,0.171950,173
1784729920292000,2.296117,10.968433,-0.045542,0.095897,0.076428,0.156282,174
1784729920302000,3.706412,10.882775,-0.555721,0.152950,0.077328,0.115614,175
1784729920312000,3.882849,11.278474,-0.904799,0.027347,0.081526,0.064938,176
1784729920322000,3.194224,11.029497,-1.173795,-0.045063,-0.002821,-0.026290,177
1784729920332000,1.606899,11.334227,-1.253276,-0.082022,-0.154085,-0.106223,178
1784729920342000,0.109799,12.433174,-0.976721,-0.355480,-0.254623,-0.219575,179
1784729920352000,-1.205558,13.507916,-1.410873,-0.092280,-0.413253,-0.306341,180
1784729920362000,-1.907463,14.461314,-1.430628,-0.034567,-0.325380,-0.384039,181
1784729920372000,-1.168467,14.310095,0.802029,-0.246426,-0.168467,-0.464666,182
1784729920382000,0.829227,14.752553,2.772820,-0.188469,-0.168929,-0.586734,183
1784729920392000,3.177383,15.702011,2.680600,0.033769,-0.201324,-0.763659,184
1784729920402000,4.065264,14.950173,2.734906,0.113361,0.063782,-0.938549,185
1784729920412000,3.123585,12.269860,3.121885,0.000569,0.216738,-1.007675,186
1784729920422000,1.576198,10.183287,3.504666,-0.016267,0.175491,-0.970395,187
1784729920432000,0.390975,9.048981,3.559900,-0.079298,0.086405,-0.890474,188
1784729920442000,-0.611107,8.451450,3.737353,-0.324731,0.047234,-0.836996,189
1784729920452000,-0.905850,8.798558,4.158215,-0.472934,-0.075911,-0.793197,190
1784729920462000,-0.641850,9.241549,3.946101,-0.341041,-0.176118,-0.763119,191
1784729920472000,-0.479497,9.859121,3.386244,-0.319301,-0.188929,-0.680361,192
1784729920482000,-0.572701,10.546860,3.050338,-0.386042,-0.153757,-0.592394,193
1784729920492000,-0.938792,10.999186,2.701444,-0.317215,-0.115985,-0.490484,194
1784729920502000,-0.694208,10.873319,2.164873,-0.189437,-0.102475,-0.332236,195
1784729920512000,-0.035965,10.736545,1.965786,-0.186036,-0.014583,-0.195953,196
1784729920522000,0.491996,10.425549,1.988228,-0.159189,0.081890,-0.092964,197
1784729920532000,0.954117,9.832766,1.791738,-0.125530,0.127108,-0.014306,198
1784729920542000,1.131281,9.377135,1.837885,-0.178203,0.142228,0.031901,199
1784729920552000,1.412144,8.857759,2.145835,-0.198482,0.128685,0.049872,200
1784729920562000,1.454480,8.339425,2.212155,-0.143331,0.112429,0.054906,201
1784729920572000,1.313699,7.880407,1.932913,-0.088232,0.096208,0.056769,202
1784729920582000,1.326649,7.575222,1.639160,-0.083567,0.102527,0.058723,203
1784729920592000,1.508199,7.466082,1.494714,-0.098668,0.129623,0.085085,204
1784729920602000,1.505868,7.341893,1.407736,-0.124361,0.176820,0.100817,205
1784729920612000,1.290288,7.394405,1.387797,-0.127626,0.197879,0.111715,206
1784729920622000,1.164274,7.561848,1.423511,-0.074422,0.216878,0.140134,207
1784729920632000,0.987191,7.941832,1.194605,0.006724,0.246047,0.149959,208
1784729920642000,0.494657,8.207541,0.735977,0.011555,0.274807,0.144233,209
1784729920652000,0.267537,8.597673,0.400142,-0.034580,0.298508,0.145818,210
1784729920662000,0.186608,8.641982,0.186887,-0.103236,0.341703,0.131705,211
1784729920672000,0.257543,8.440331,0.240804,-0.162299,0.363430,0.096544,212
1784729920682000,0.396914,8.180397,0.435564,-0.179093,0.379196,0.059648,213
1784729920692000,0.430066,7.926044,0.469062,-0.155907,0.391311,0.017857,214
1784729920702000,0.509397,7.878781,0.374955,-0.139966,0.393094,-0.027377,215
1784729920712000,0.606183,7.793865,0.165926,-0.109946,0.395506,-0.068112,216
1784729920722000,0.565935,7.805181,-0.132806,-0.069829,0.406489,-0.099619,217
1784729920732000,0.502013,7.882599,-0.263850,-0.034755,0.447573,-0.110264,218
1784729920742000,0.488228,8.135917,-0.119174,-0.074387,0.442597,-0.102627,219
1784729920752000,0.605498,8.082706,-0.010624,-0.133762,0.454844,-0.110708,220
1784729920762000,0.898483,8.315039,0.521470,-0.103284,0.358706,-0.103720,221
1784729920772000,0.820616,8.381835,0.558072,-0.003438,0.275369,-0.117152,222
1784729920782000,0.539584,8.813698,0.446644,0.111144,0.208616,-0.117308,223
1784729920792000,0.255880,9.273727,0.436091,0.093646,0.176769,-0.100747,224
1784729920802000,-0.483754,9.634822,0.797146,-0.041526,0.129720,-0.086662,225
1784729920812000,-1.241817,9.747663,0.959869,-0.074116,0.042573,-0.055934,226
1784729920822000,-1.485772,9.509746,0.573109,-0.059746,-0.059706,-0.023741,227
1784729920832000,-1.592229,9.905033,0.211697,-0.041810,-0.153424,0.014098,228
1784729920842000,-1.148651,10.750729,0.082769,0.013521,-0.166822,0.070365,229
1784729920853000,0.163709,11.374594,-0.398429,0.227770,-0.083787,0.120501,230
1784729920862000,1.833800,11.962371,-1.158344,0.318304,0.022102,0.144012,231
1784729920873000,3.598717,13.147974,-0.804206,0.074643,0.104188,0.170589,232
1784729920883000,4.258094,13.266139,-0.325226,0.002847,0.253915,0.161031,233
1784729920893000,3.924408,13.687984,1.218485,-0.003816,0.350180,0.158904,234
1784729920903000,3.052000,13.818178,2.453808,-0.018428,0.265470,0.239496,235
1784729920913000,1.467591,13.221893,3.057516,-0.095950,0.225059,0.364003,236
1784729920923000,-0.058760,13.232226,2.498338,0.112878,0.119988,0.470473,237
1784729920933000,-1.974024,13.631637,1.733459,0.364876,0.019711,0.587744,238
1784729920943000,-2.841150,13.112713,2.438196,0.283608,-0.123833,0.756935,239
1784729920953000,-2.457509,10.834129,2.597941,0.326939,-0.102748,0.847347,240
1784729920963000,-1.733221,8.956555,2.369787,0.340251,-0.049586,0.818439,241
1784729920973000,-0.981029,8.519765,2.637790,0.279856,-0.049317,0.753967,242
1784729920983000,-0.569721,8.893273,2.856676,0.217077,-0.099052,0.700197,243
1784729920993000,-0.503082,9.513333,2.654406,0.184618,-0.113401,0.629594,244
1784729921003000,-0.133718,10.052414,2.445474,0.056891,-0.070656,0.564737,245
1784729921013000,0.715188,10.423159,2.450321,-0.093645,-0.048298,0.513224,246
1784729921023000,1.438217,10.629195,2.691255,-0.148167,0.002946,0.455946,247
1784729921033000,2.004430,10.246257,2.724037,-0.074267,0.052914,0.395872,248
1784729921043000,2.402268,9.681721,2.597971,-0.033834,0.109165,0.315172,249
1784729921053000,2.406651,9.390048,2.448093,-0.056808,0.139223,0.226937,250
1784729921063000,2.628575,9.209458,2.232417,-0.064604,0.134114,0.166882,251
1784729921073000,2.527664,9.066421,2.061111,-0.042171,0.161284,0.111176,252
1784729921083000,1.858916,9.022851,1.937499,-0.065633,0.198757,0.076244,253
1784729921093000,1.242914,8.777832,1.828907,-0.042516,0.225458,0.062289,254
1784729921103000,0.443976,8.519093,1.556935,0.015690,0.233584,0.042125,255
1784729921113000,-0.343577,8.164818,1.222470,0.037134,0.221166,0.039782,0
1784729921123000,-0.896354,7.924896,1.081970,-0.005566,0.215490,0.056469,1
1784729921133000,-1.002092,7.828720,1.093183,-0.047964,0.203458,0.077986,2
1784729921143000,-1.298365,7.962873,1.033002,-0.061477,0.183054,0.099093,3
1784729921153000,-1.036958,8.063481,1.126786,-0.040423,0.110693,0.075298,4
1784729921163000,-1.028539,8.163985,1.165817,0.048874,0.039600,0.036530,5
1784729921173000,-0.827308,8.270910,0.989130,0.140231,-0.016313,0.025024,6
1784729921183000,-0.007288,8.316415,0.833478,0.192210,-0.071595,-0.018032,7
1784729921193000,0.560175,8.400300,0.604029,0.216643,-0.078972,-0.058547,8
1784729921203000,0.799718,8.401708,0.437551,0.209313,-0.071724,-0.096035,9
1784729921213000,0.902101,8.387852,0.377801,0.189992,-0.065975,-0.110563,10
1784729921223000,0.835185,8.392602,0.366435,0.177244,-0.054653,-0.106776,11
1784729921233000,0.797667,8.402338,0.331862,0.174260,-0.058206,-0.098750,12
1784729921243000,0.709038,8.393184,0.233433,0.162191,-0.070090,-0.069846,13
1784729921253000,0.592603,8.326633,0.100427,0.137106,-0.076434,-0.032850,14
1784729921263000,0.588327,8.284669,-0.101522,0.121129,-0.082665,0.000283,15
1784729921273000,0.491405,8.175040,-0.243780,0.119199,-0.075009,0.031409,16
1784729921283000,0.131373,8.040071,-0.234688,0.108525,-0.071816,0.045831,17
1784729921293000,-0.056571,7.962809,-0.201581,0.117039,-0.102986,0.070907,18
1784729921303000,-0.206620,8.158993,-0.166394,0.147358,-0.149619,0.109530,19
1784729921313000,-0.207612,8.581005,-0.155164,0.170141,-0.190729,0.161433,20
1784729921323000,-0.383000,9.050335,-0.085970,0.170733,-0.208843,0.192303,21
1784729921333000,-0.177717,9.883102,0.273280,0.123322,-0.173831,0.206457,22
1784729921343000,0.832409,10.397613,0.345404,0.159514,-0.125496,0.214202,23
1784729921353000,1.464322,10.955996,0.191554,0.184164,-0.034042,0.202591,24
1784729921363000,2.191733,11.125772,0.081940,0.168442,0.035980,0.183506,25
1784729921373000,3.172804,10.884267,-0.156978,0.175598,0.089250,0.140964,26
1784729921383000,3.371838,10.690606,-0.598994,0.105497,0.158413,0.059956,27
1784729921393000,2.894156,11.008119,-0.893767,0.061145,0.063836,-0.020016,28
1784729921403000,1.785424,11.382724,-1.291548,0.113543,-0.077850,-0.125971,29
1784729921413000,0.583809,12.765888,-1.135659,-0.114743,-0.190621,-0.242090,30
1784729921423000,-0.560322,13.649737,-1.681240,-0.034813,-0.403316,-0.334971,31
1784729921433000,-1.383693,14.587089,-1.459406,-0.147693,-0.412844,-0.430104,32
1784729921443000,-1.266682,13.585993,0.748562,-0.378720,-0.280672,-0.515371,33
1784729921453000,-0.449849,13.059777,3.149882,-0.261331,-0.253529,-0.605537,34
1784729921463000,1.289039,13.786452,3.242239,-0.030219,-0.351454,-0.709396,35
1784729921473000,3.162847,14.080158,2.789101,0.071928,-0.314079,-0.852803,36
1784729921483000,3.278496,12.350887,3.251170,-0.099401,-0.116642,-0.941523,37
1784729921493000,2.286868,10.115167,3.869041,-0.177326,-0.056860,-0.958847,38
1784729921503000,1.057489,8.588220,3.801520,-0.112379,-0.108332,-0.925009,39
1784729921513000,0.086136,8.131441,3.711447,-0.220681,-0.126772,-0.888498,40
1784729921523000,-0.224394,8.787501,3.796982,-0.347109,-0.171036,-0.861389,41
1784729921533000,0.065145,9.624345,3.500660,-0.270452,-0.276367,-0.821280,42
1784729921543000,-0.286417,10.039446,2.964741,-0.245833,-0.271759,-0.756231,43
1784729921553000,-0.766973,10.500237,2.771288,-0.304027,-0.239632,-0.646707,44
1784729921563000,-1.271612,10.874599,2.586458,-0.247637,-0.221695,-0.522659,45
1784729921573000,-1.445791,10.709368,2.096204,-0.143691,-0.220416,-0.363308,46
1784729921583000,-0.843572,10.620843,1.833393,-0.110518,-0.206371,-0.215014,47
1784729921593000,-0.162260,10.507884,1.668626,-0.085704,-0.203389,-0.107663,48
1784729921603000,0.454007,10.288644,1.612150,-0.070329,-0.233098,-0.055240,49
1784729921613000,0.706793,10.048790,1.689965,-0.103760,-0.284626,-0.032338,50
1784729921623000,0.946849,9.462721,1.910137,-0.138953,-0.317800,-0.011745,51
1784729921633000,0.999424,8.719035,1.966244,-0.128255,-0.329772,-0.010202,52
1784729921643000,0.997677,8.191933,1.882505,-0.112636,-0.360019,-0.011163,53
1784729921653000,1.156372,7.795125,1.712315,-0.092622,-0.375375,-0.008158,54
1784729921663000,1.142528,7.738758,1.510055,-0.072196,-0.353545,0.001252,55
1784729921673000,1.088916,7.763578,1.355071,-0.084821,-0.353306,0.022088,56
1784729921683000,1.248595,7.831319,1.301968,-0.071858,-0.323767,0.054264,57
1784729921693000,1.278796,7.946850,1.240802,-0.045749,-0.282709,0.090293,58
1784729921703000,1.065187,8.086186,1.139627,-0.042265,-0.237557,0.103945,59
1784729921713000,0.933590,8.244950,1.021505,-0.034040,-0.206084,0.113982,60
1784729921723000,0.867035,8.298874,0.808670,0.004356,-0.146206,0.116259,61
1784729921733000,0.998080,8.252554,0.571894,-0.004796,-0.066321,0.091121,62
1784729921743000,1.130230,8.104622,0.483601,-0.052693,0.014694,0.041287,63
1784729921753000,1.114527,7.998734,0.540388,-0.085954,0.077505,-0.010698,64
1784729921763000,1.201646,7.984653,0.513842,-0.096961,0.128833,-0.046022,65
1784729921773000,1.380581,7.942081,0.465621,-0.092588,0.165736,-0.062412,66
1784729921783000,1.429593,7.846433,0.432940,-0.100075,0.214100,-0.086662,67
1784729921793000,1.410017,7.711963,0.455900,-0.042635,0.272146,-0.112186,68
1784729921803000,1.427710,7.751138,0.326879,0.042943,0.318232,-0.125378,69
1784729921813000,1.398490,7.828870,0.153545,0.066469,0.381003,-0.135557,70
1784729921823000,1.398438,8.101250,0.322670,0.022294,0.409330,-0.136178,71
1784729921833000,1.426476,8.411898,0.516700,0.010154,0.406815,-0.124831,72
1784729921843000,1.110052,8.809699,0.476222,0.063310,0.404784,-0.112008,73
1784729921853000,0.304123,9.514884,0.227046,0.089487,0.388198,-0.097469,74
1784729921863000,-0.469021,9.949020,0.395428,0.037677,0.355382,-0.069185,75
1784729921873000,-1.016862,10.003307,0.784396,-0.017387,0.315470,-0.023841,76
1784729921883000,-1.571309,9.819469,0.888956,-0.019295,0.280610,0.016266,77
1784729921894000,-1.514566,9.658442,0.563322,0.016196,0.227646,0.060689,78
1784729921904000,-0.766854,9.905277,0.406534,0.029353,0.154902,0.115797,79
1784729921914000,-0.053170,10.378579,0.067262,0.117963,0.123047,0.154257,80
1784729921924000,1.338915,10.985168,-0.709585,0.277365,0.126879,0.176747,81
1784729921934000,2.546822,11.361824,-1.588269,0.358121,0.218201,0.164140,82
1784729921944000,3.566652,12.157255,-1.169066,0.180944,0.349545,0.137654,83
1784729921954000,4.002103,12.831285,0.132018,-0.131323,0.484112,0.139960,84
1784729921964000,3.141876,12.821467,0.723692,-0.043325,0.534508,0.152573,85
1784729921974000,2.460041,13.048356,1.085760,0.033059,0.434956,0.188387,86
1784729921984000,1.222396,12.819070,2.175504,-0.064691,0.312560,0.250837,87
1784729921994000,-0.359204,12.560788,3.203159,-0.104250,0.303058,0.354202,88
1784729922004000,-2.500253,12.620206,2.282086,0.267953,0.292120,0.458189,89
1784729922014000,-3.375790,12.091574,2.203887,0.386506,0.206432,0.563382,90
1784729922024000,-2.430870,10.975411,3.040958,0.326283,0.141150,0.668860,91
1784729922034000,-1.428914,9.514478,2.999491,0.363861,0.167287,0.714384,92
1784729922044000,-0.777397,9.155422,3.073050,0.303806,0.148308,0.729958,93
1784729922054000,-0.595003,9.548077,3.233099,0.196236,0.038962,0.746964,94
1784729922064000,-1.122347,9.692385,3.013151,0.206930,-0.026691,0.731199,95
1784729922074000,-1.126952,9.837477,2.811926,0.222071,-0.044867,0.726925,96
1784729922084000,-0.413338,10.237680,2.664434,0.210723,-0.060971,0.724154,97
1784729922094000,0.443774,10.557551,2.357191,0.204744,-0.026873,0.695297,98
1784729922104000,1.357966,10.512734,2.093254,0.191398,-0.023529,0.644221,99
1784729922114000,2.038417,10.079202,1.797563,0.155780,-0.050817,0.550048,100
1784729922124000,2.238479,9.643656,1.700348,0.103612,-0.079655,0.429760,101
1784729922134000,2.290692,9.461277,1.734636,0.058927,-0.078937,0.336459,102
1784729922144000,2.243742,9.662964,1.681357,0.022919,-0.039972,0.262618,103
1784729922154000,1.821573,9.725783,1.483098,-0.051225,0.017973,0.207721,104
1784729922164000,1.165735,9.488857,1.613561,-0.117421,0.075704,0.177000,105
1784729922174000,0.650225,9.127675,1.708860,-0.063945,0.112414,0.160267,106
1784729922184000,0.166643,8.936312,1.488763,0.047066,0.139812,0.144211,107
1784729922194000,-0.252373,8.697576,1.188572,0.056516,0.142861,0.134491,108
1784729922204000,-0.585368,8.601738,1.078495,-0.005995,0.130595,0.112497,109
1784729922214000,-0.865135,8.485791,1.137816,-0.057374,0.111466,0.096732,110
1784729922224000,-1.029454,8.470860,1.181400,-0.054731,0.076108,0.082851,111
1784729922234000,-0.900213,8.557364,1.189981,-0.018152,0.024453,0.063281,112
1784729922244000,-0.644358,8.774055,1.120815,0.047662,-0.030406,0.042702,113
1784729922254000,-0.194253,8.919619,0.970111,0.100226,-0.079564,0.015945,114
1784729922264000,0.223066,8.969352,0.794151,0.118945,-0.111930,0.001741,115
1784729922274000,0.418408,8.845700,0.674024,0.096231,-0.110572,-0.032230,116
1784729922284000,0.599729,8.682621,0.726230,0.081660,-0.116830,-0.046165,117
1784729922294000,0.705555,8.586888,0.723871,0.081976,-0.112199,-0.049928,118
1784729922304000,0.732719,8.554077,0.604423,0.088909,-0.112091,-0.054809,119
1784729922314000,0.713287,8.521510,0.430918,0.065905,-0.112959,-0.044347,120
1784729922324000,0.722196,8.455297,0.277242,0.020627,-0.121533,-0.026521,121
1784729922334000,0.682497,8.326485,0.150837,-0.011875,-0.141447,-0.010897,122
1784729922344000,0.696046,8.207463,0.006681,-0.030673,-0.165882,0.008239,123
1784729922354000,0.708488,8.078588,-0.094328,-0.068493,-0.202480,0.025749,124
1784729922364000,0.533068,7.968433,-0.171455,-0.069801,-0.224327,0.030800,125
1784729922374000,0.281184,8.050155,-0.273875,-0.059679,-0.220247,0.031626,126
1784729922384000,0.119407,8.051314,-0.513460,-0.005640,-0.213189,0.052250,127
1784729922394000,0.069439,8.306189,-0.638635,-0.005795,-0.212338,0.078142,128
1784729922404000,0.040926,8.751333,-0.493601,-0.026542,-0.209344,0.103317,129
1784729922414000,0.148079,8.995476,-0.384155,0.008330,-0.208200,0.126997,130
1784729922424000,0.196666,9.455215,-0.251415,0.042712,-0.194418,0.147887,131
1784729922434000,0.731255,10.150064,0.005623,0.001958,-0.147924,0.164952,132
1784729922444000,1.637996,10.467074,0.189462,0.043385,-0.104845,0.184826,133
1784729922454000,2.078491,10.793846,0.212073,0.029412,-0.026138,0.159260,134
1784729922464000,2.774521,10.737457,0.215978,0.041002,0.014966,0.131060,135
1784729922474000,3.266285,10.648732,-0.044973,0.044809,0.051137,0.077689,136
1784729922484000,3.022966,10.617287,-0.469320,-0.007135,0.060543,0.021939,137
1784729922494000,2.278506,10.633631,-1.007658,-0.007844,-0.050626,-0.031119,138
1784729922504000,1.023711,11.381773,-1.350245,-0.017861,-0.168856,-0.074410,139
1784729922514000,-0.201291,12.324710,-1.374365,-0.220318,-0.270017,-0.135632,140
1784729922524000,-0.718570,12.898768,-1.270648,-0.175457,-0.351376,-0.208897,141
1784729922534000,-0.966101,13.250573,-0.819701,-0.166979,-0.300314,-0.308521,142
1784729922544000,-0.539648,13.017862,0.516005,-0.214980,-0.237121,-0.404120,143
1784729922554000,0.435912,12.981037,2.135993,-0.200095,-0.273201,-0.497497,144
1784729922564000,1.760174,13.831341,2.289821,0.016953,-0.346975,-0.617789,145
1784729922574000,2.865872,14.181295,1.835660,0.087722,-0.233911,-0.734616,146
1784729922584000,2.638069,12.977527,2.549934,-0.092115,-0.037370,-0.851188,147
1784729922594000,1.606455,11.119327,3.389096,-0.077304,0.004888,-0.877874,148
1784729922604000,0.746544,9.746517,3.317610,0.005380,-0.026458,-0.837728,149
1784729922614000,-0.189537,8.924415,3.371096,-0.199848,-0.026375,-0.781751,150
1784729922624000,-0.537203,8.508487,3.845181,-0.460224,-0.055334,-0.729191,151
1784729922634000,0.022558,8.599073,4.095721,-0.379409,-0.144307,-0.662929,152
1784729922644000,0.245403,9.060553,3.988221,-0.374246,-0.161071,-0.646956,153
1784729922654000,0.259035,9.320609,3.816742,-0.376170,-0.145777,-0.632311,154
1784729922664000,0.179187,9.572597,3.364245,-0.369237,-0.153685,-0.587408,155
1784729922674000,0.073391,9.804900,2.987807,-0.348569,-0.143393,-0.520774,156
1784729922684000,0.000505,10.021599,2.823458,-0.342893,-0.110554,-0.430894,157
1784729922694000,0.237907,10.104080,2.734068,-0.313433,-0.074770,-0.331959,158
1784729922704000,0.684902,10.172151,2.707822,-0.260649,-0.039081,-0.259338,159
1784729922714000,1.083518,10.159589,2.516715,-0.181678,0.009653,-0.207430,160
1784729922724000,1.204900,9.868530,2.297930,-0.148842,0.057113,-0.175300,161
1784729922734000,1.199197,9.460464,2.358601,-0.160598,0.053775,-0.141749,162
1784729922744000,1.080858,8.985623,2.324781,-0.145132,0.011702,-0.110847,163
1784729922754000,0.935946,8.674389,2.194860,-0.127447,-0.007841,-0.094006,164
1784729922764000,0.886629,8.487978,2.072775,-0.138863,-0.026509,-0.072958,165
1784729922774000,1.081021,8.407290,1.986402,-0.158998,-0.041269,-0.048632,166
1784729922784000,1.212146,8.345489,1.932031,-0.147944,-0.036335,-0.021404,167
1784729922794000,1.339520,8.327105,1.834515,-0.110985,-0.031771,0.005368,168
1784729922804000,1.422598,8.380366,1.774514,-0.067296,-0.019689,0.030871,169
1784729922814000,1.174278,8.524185,1.715647,-0.035816,-0.002992,0.045434,170
1784729922824000,0.632426,8.663647,1.500097,-0.026940,0.000821,0.069014,171
1784729922834000,0.344271,8.755395,1.315122,-0.027600,-0.000034,0.093351,172
1784729922844000,0.274729,8.803825,1.217426,-0.020459,0.030875,0.101828,173
1784729922854000,0.304450,8.837676,1.179937,-0.029453,0.082505,0.091836,174
1784729922864000,0.542826,8.751339,1.248367,-0.058877,0.125543,0.067514,175
1784729922874000,0.842281,8.612020,1.371035,-0.060922,0.153970,0.036013,176
1784729922884000,1.029913,8.511676,1.361232,-0.045048,0.161949,0.000218,177
1784729922894000,1.052079,8.521994,1.246622,-0.027154,0.174513,-0.034084,178
1784729922904000,0.985793,8.494410,1.028674,-0.014503,0.188049,-0.056677,179
1784729922914000,0.884349,8.370440,0.876635,-0.009362,0.222562,-0.064066,180
1784729922925000,0.795032,8.255567,0.811385,-0.006854,0.258129,-0.065078,181
1784729922935000,0.624431,8.274977,0.725291,-0.000650,0.283341,-0.060214,182
1784729922945000,0.527893,8.088664,0.573139,0.001543,0.323038,-0.071843,183
1784729922955000,0.590982,8.059034,0.733158,0.026068,0.346167,-0.073094,184
1784729922965000,0.656663,7.833280,0.806048,0.039604,0.337849,-0.088560,185
1784729922975000,0.798281,7.928936,0.891821,0.082970,0.309702,-0.104313,186
1784729922985000,0.827008,7.930074,0.710127,0.122194,0.276931,-0.119406,187
1784729922995000,0.742264,7.972389,0.828078,0.111004,0.216355,-0.142773,188
1784729923005000,0.378102,8.439930,1.141926,0.114319,0.116787,-0.154817,189
1784729923015000,-0.071139,8.726404,1.231923,0.156219,0.019368,-0.178673,190
1784729923025000,-0.640167,8.875791,0.953266,0.213070,-0.083981,-0.225451,191
1784729923035000,-1.009787,9.358298,0.369113,0.234514,-0.205445,-0.265561,192
1784729923045000,-1.193669,10.137169,0.007142,0.198090,-0.293885,-0.274922,193
1784729923055000,-1.136050,10.786137,-0.219263,0.221112,-0.319872,-0.242239,194
1784729923065000,-0.840185,11.049770,-0.906597,0.305106,-0.266368,-0.203164,195
1784729923075000,0.073463,11.356203,-1.356438,0.301798,-0.213593,-0.158828,196
1784729923085000,1.070100,11.357490,-1.286683,0.206010,-0.145332,-0.127310,197
1784729923095000,1.804644,11.068665,-0.903330,0.169247,-0.026633,-0.106451,198
1784729923105000,2.559629,11.605825,0.117624,0.107327,0.062099,-0.037731,199
1784729923115000,2.743044,11.761392,0.622491,0.107884,0.127143,0.039157,200
1784729923125000,2.591049,11.928334,0.734339,0.181132,0.175689,0.103855,201
1784729923135000,2.532892,11.881232,0.574150,0.145281,0.233928,0.149759,202
1784729923145000,2.369250,11.742074,1.337517,-0.043621,0.304685,0.201402,203
1784729923155000,1.767345,11.900804,2.690593,-0.255713,0.354383,0.274861,204
1784729923165000,0.533845,12.208402,3.033488,-0.122288,0.374475,0.362098,205
1784729923175000,-0.340866,13.168516,2.644231,0.030179,0.246037,0.469330,206
1784729923185000,-1.118761,13.618158,2.625281,-0.050188,0.046518,0.571538,207
1784729923195000,-1.423145,12.086554,2.798444,-0.076579,-0.065743,0.597179,208
1784729923205000,-1.244237,10.526632,3.032380,0.004341,-0.083579,0.556846,209
1784729923215000,-0.702417,10.162755,3.078992,-0.044554,-0.168341,0.518062,210
1784729923225000,-0.764696,9.560315,2.743659,-0.158986,-0.258454,0.451967,211
1784729923235000,-1.131069,9.421288,2.627723,-0.216808,-0.352027,0.375393,212
1784729923245000,-1.653093,9.722960,2.562187,-0.228169,-0.492825,0.299633,213
1784729923255000,-1.889684,9.989831,2.782613,-0.276923,-0.591104,0.239871,214
1784729923265000,-1.856679,9.960961,2.807387,-0.252812,-0.646725,0.207886,215
1784729923275000,-1.685539,9.706563,2.887774,-0.245115,-0.695604,0.176638,216
1784729923285000,-1.437908,9.457023,2.979820,-0.248605,-0.729194,0.154386,217
1784729923295000,-1.159208,9.156385,2.803598,-0.210323,-0.768219,0.134101,218
1784729923305000,-0.800328,9.106170,2.481640,-0.151480,-0.836395,0.120682,219
1784729923315000,-0.398573,9.367835,2.152442,-0.162000,-0.941793,0.107900,220
1784729923325000,-0.141947,9.530817,2.241542,-0.299932,-1.033742,0.086645,221
1784729923335000,0.248147,9.352031,2.572940,-0.375279,-1.111983,0.061465,222
1784729923345000,0.406813,9.285188,2.567299,-0.338188,-1.181882,0.033654,223
1784729923355000,0.154455,9.352404,2.484017,-0.329102,-1.224999,0.000725,224
1784729923365000,-0.222183,9.269679,2.574500,-0.351752,-1.277369,-0.046326,225
1784729923375000,-0.614381,9.182968,2.525305,-0.344329,-1.343768,-0.099552,226
1784729923385000,-1.012831,9.255358,2.337318,-0.329182,-1.410226,-0.142344,227
1784729923395000,-1.338489,9.235784,2.309365,-0.330238,-1.472322,-0.176444,228
1784729923405000,-1.473976,9.192119,2.353603,-0.318824,-1.532128,-0.201809,229
1784729923415000,-1.484841,9.134231,2.405905,-0.303932,-1.597108,-0.223472,230
1784729923425000,-1.389053,9.148739,2.413315,-0.271469,-1.655084,-0.244476,231
1784729923435000,-1.095261,9.259827,2.368753,-0.234562,-1.718147,-0.268668,232
1784729923445000,-0.828989,9.505511,2.266366,-0.224009,-1.786499,-0.299198,233
1784729923455000,-0.715901,9.640673,2.154666,-0.224775,-1.856063,-0.331625,234
1784729923465000,-0.683169,9.554160,2.193612,-0.217127,-1.920938,-0.367432,235
1784729923475000,-0.655559,9.510749,2.242194,-0.205210,-2.000660,-0.405245,236
1784729923485000,-0.768751,9.333486,2.176064,-0.178792,-2.075754,-0.437031,237
1784729923495000,-0.789511,9.487741,2.041668,-0.169264,-2.167266,-0.447699,238
1784729923505000,-0.833439,9.603763,1.877696,-0.193701,-2.260729,-0.460910,239
1784729923515000,-0.851397,9.685587,1.824720,-0.222401,-2.355940,-0.474552,240
1784729923525000,-0.924270,9.681570,1.673912,-0.241773,-2.455101,-0.487255,241
1784729923535000,-0.984034,9.696471,1.571544,-0.249319,-2.551907,-0.497554,242
1784729923545000,-1.039568,9.749634,1.488645,-0.245964,-2.635472,-0.505567,243
1784729923555000,-0.998066,9.817595,1.365172,-0.239947,-2.718992,-0.515743,244
1784729923565000,-0.771952,9.798904,1.347111,-0.230488,-2.810457,-0.530639,245
1784729923575000,-0.617661,9.847308,1.317796,-0.205123,-2.913165,-0.554136,246
1784729923585000,-0.460123,9.824492,1.168247,-0.195008,-3.010297,-0.574260,247
1784729923595000,-0.364755,9.651773,1.203722,-0.190423,-3.101226,-0.589076,248
1784729923605000,-0.396999,9.532075,1.159179,-0.166961,-3.190891,-0.601600,249
1784729923615000,-0.445414,9.542601,0.989873,-0.136424,-3.267309,-0.614942,250
1784729923625000,-0.407126,9.562939,0.808508,-0.120569,-3.340404,-0.628065,251
1784729923635000,-0.236958,9.760455,0.712977,-0.109107,-3.411801,-0.642187,252
1784729923645000,-0.119626,10.068232,0.611669,-0.118705,-3.468991,-0.659810,253
1784729923655000,-0.154441,10.274217,0.645161,-0.128379,-3.492390,-0.675206,254
1784729923665000,-0.182935,10.466166,0.621146,-0.113105,-3.531722,-0.683978,255
1784729923675000,-0.112481,10.537903,0.676121,-0.102148,-3.568848,-0.687943,0
1784729923685000,-0.137776,10.531657,0.910705,-0.112898,-3.601578,-0.689991,1
1784729923695000,-0.375077,10.391622,0.999872,-0.106636,-3.637733,-0.681727,2
1784729923705000,-0.609083,10.223560,0.964174,-0.102178,-3.676943,-0.658065,3
1784729923715000,-0.675314,10.122910,0.933206,-0.113543,-3.723234,-0.627162,4
1784729923725000,-0.607416,9.956354,0.732691,-0.104266,-3.760704,-0.602021,5
1784729923735000,-0.351083,9.800001,0.484414,-0.106702,-3.795202,-0.594152,6
1784729923745000,-0.040698,9.652519,0.372058,-0.150058,-3.813104,-0.611660,7
1784729923755000,0.267535,9.379783,0.350386,-0.208269,-3.841357,-0.636176,8
1784729923765000,0.361379,9.121448,0.265443,-0.215934,-3.864638,-0.660595,9
1784729923775000,0.464908,8.882341,0.176031,-0.184656,-3.863458,-0.692881,10
1784729923785000,0.403676,8.666588,0.144745,-0.154695,-3.839383,-0.723311,11
1784729923795000,0.317161,8.650912,0.334448,-0.163679,-3.775643,-0.739795,12
1784729923805000,0.647434,8.632066,0.371977,-0.103901,-3.724787,-0.736201,13
1784729923815000,0.803155,8.902627,0.089082,-0.030792,-3.664775,-0.722385,14
1784729923825000,0.863006,9.306298,-0.022984,-0.057605,-3.561637,-0.687239,15
1784729923835000,0.957787,9.497001,0.196362,-0.141851,-3.467525,-0.653074,16
1784729923845000,1.096326,9.384511,0.598150,-0.198579,-3.388120,-0.617631,17
1784729923855000,1.317245,9.296332,0.968614,-0.182891,-3.311047,-0.580276,18
1784729923865000,1.480428,9.276306,1.155344,-0.143935,-3.220051,-0.541921,19
1784729923875000,1.653087,9.323442,1.342589,-0.136373,-3.085603,-0.515172,20
