time,accel_x,accel_y,accel_z,gyro_x,gyro_y,gyro_z,frame_number
1784729908350000,-1.697687,5.488574,7.864660,-0.007430,-0.004556,0.002459,5
1784729908360000,-1.702472,5.488582,7.864718,-0.005195,-0.003460,0.001457,6
1784729908370000,-1.707240,5.502953,7.864665,-0.004688,-0.003997,0.001424,7
1784729908380000,-1.702644,5.493289,7.850349,-0.006295,-0.003507,0.002527,8
1784729908390000,-1.707376,5.488537,7.855222,-0.005853,-0.004665,0.004067,9
1784729908400000,-1.721765,5.459838,7.855619,-0.004795,-0.004268,0.006244,10
1784729908410000,-1.726527,5.478996,7.855529,-0.005984,-0.005908,0.007214,11
1784729908420000,-1.697746,5.488547,7.859883,-0.007586,-0.005859,0.006676,12
1784729908430000,-1.716833,5.483820,7.864930,-0.004269,-0.004304,0.006780,13
1784729908440000,-1.692961,5.488539,7.859825,-0.004885,-0.005860,0.006144,14
1784729908450000,-1.697574,5.483840,7.874252,-0.000003,-0.005356,0.005646,15
1784729908460000,-1.692783,5.488618,7.874156,0.000660,-0.003680,0.004140,16
1784729908470000,-1.687981,5.502972,7.873987,0.001778,-0.003131,0.003639,17
1784729908480000,-1.688040,5.502945,7.869209,0.002315,-0.003138,0.003640,18
1784729908490000,-1.702336,5.502997,7.874161,0.001282,-0.002564,0.003137,19
1784729908500000,-1.697664,5.507724,7.864511,0.002895,-0.002583,0.003138,20
1784729908510000,-1.697670,5.502936,7.864549,0.001306,-0.002504,0.002066,21
1784729908520000,-1.683326,5.493336,7.864449,-0.002512,-0.003051,0.003100,22
1784729908530000,-1.692998,5.507662,7.854898,-0.004072,-0.002441,0.002060,23
1784729908540000,-1.697758,5.478972,7.859957,-0.004579,-0.001904,0.002093,24
1784729908550000,-1.707229,5.512528,7.864590,-0.006766,-0.001969,0.003698,25
1784729908560000,-1.697563,5.493414,7.874177,-0.006754,-0.001939,0.003162,26
1784729908570000,-1.692718,5.493433,7.878897,-0.006174,-0.001384,0.002661,27
1784729908580000,-1.702472,5.488582,7.864718,-0.006132,-0.000823,0.002159,28
1784729908590000,-1.697622,5.493388,7.869400,-0.003939,-0.000288,0.001659,29
1784729908600000,-1.692848,5.483804,7.869416,-0.000659,0.000265,0.000624,30
1784729908610000,-1.697741,5.493335,7.859846,0.000416,0.000253,0.000625,31
1784729908620000,-1.688105,5.498132,7.864470,-0.002242,0.000815,0.000656,32
1784729908630000,-1.693037,5.474150,7.855159,0.001309,0.006145,-0.000077,33
1784729908640000,-1.673750,5.498106,7.864295,-0.001392,0.006147,0.000456,34
1784729908650000,-1.697670,5.502936,7.864549,-0.001500,0.004054,-0.000214,35
1784729908660000,-1.697789,5.502883,7.854994,-0.000455,0.003510,-0.000246,36
1784729908670000,-1.692891,5.498140,7.864528,-0.001584,0.002932,0.000791,37
1784729908680000,-1.702401,5.498183,7.869421,-0.001088,0.002365,0.001293,38
1784729908690000,-1.697817,5.478946,7.855180,-0.000551,0.002358,0.001294,39
1784729908700000,-1.688122,5.483769,7.864581,-0.000073,0.001291,0.001227,40
1784729908710000,-1.692848,5.483804,7.869416,0.001002,0.001278,0.001228,41
1784729908720000,-1.702348,5.493423,7.874236,0.001564,0.001332,0.000158,42
1784729908730000,-1.707251,5.493378,7.864739,0.002078,0.001265,0.001229,43
1784729908740000,-1.702472,5.488582,7.864718,0.004199,0.000709,0.001198,44
1784729908750000,-1.702336,5.502997,7.874161,0.003589,-0.000376,0.001666,45
1784729908760000,-1.707121,5.503006,7.874219,0.002513,-0.000363,0.001665,46
1784729908770000,-1.702449,5.507732,7.864569,0.001946,-0.000888,0.001631,47
1784729908780000,-1.702455,5.502944,7.864607,-0.001281,-0.000850,0.001628,48
1784729908790000,-1.702591,5.488529,7.855164,-0.000773,-0.001387,0.001595,49
1784729908800000,-1.702591,5.488529,7.855164,-0.002948,-0.001422,0.002664,50
1784729908810000,-1.697859,5.493281,7.850291,-0.002834,0.000231,0.001693,51
1784729908820000,-1.697800,5.493308,7.855068,-0.003425,-0.000354,0.002730,52
1784729908830000,-1.711977,5.493413,7.869575,-0.005606,-0.000860,0.002695,53
1784729908840000,-1.707031,5.479122,7.883960,-0.002392,-0.000928,0.003234,54
1784729908850000,-1.711994,5.479051,7.869686,-0.001358,-0.001501,0.003737,55
1784729908860000,-1.707263,5.483803,7.864814,-0.001848,-0.000463,0.004339,56
1784729908870000,-1.707203,5.483829,7.869591,-0.001310,-0.000470,0.004339,57
1784729908880000,-1.707150,5.479069,7.874405,-0.001974,-0.002146,0.005845,58
1784729908890000,-1.702288,5.493449,7.879013,0.000769,-0.001587,0.004810,59
1784729908900000,-1.702235,5.488688,7.883828,-0.000361,-0.002165,0.005847,60
1784729908910000,-1.687944,5.483849,7.878913,-0.000349,-0.002135,0.005311,61
1784729908920000,-1.692707,5.503007,7.878822,0.001862,-0.001099,0.005380,62
1784729908930000,-1.692760,5.507768,7.874008,0.001958,0.000053,0.003840,63
1784729908940000,-1.697724,5.507697,7.859734,0.003655,0.001156,0.002838,64
1784729908950000,-1.688213,5.507653,7.854840,0.001994,0.000144,0.002234,65
1784729908960000,-1.702413,5.488608,7.869495,-0.000043,0.001821,0.001261,66
1784729908970000,-1.697687,5.488574,7.864660,-0.002804,0.000761,0.001727,67
1784729908980000,-1.697693,5.483787,7.864697,-0.002241,0.001726,0.003401,68
1784729908990000,-1.688230,5.493291,7.854952,-0.005570,0.000142,0.003833,69
1784729909000000,-1.692896,5.493353,7.864565,-0.007213,-0.000370,0.003798,70
1784729909010000,-1.702526,5.493343,7.859904,-0.007225,-0.000400,0.004333,71
1784729909020000,-1.697622,5.493388,7.869400,-0.006825,-0.002119,0.006376,72
1784729909030000,-1.712124,5.469423,7.860206,-0.006246,-0.001565,0.005874,73
1784729909040000,-1.731236,5.493393,7.860252,-0.010261,-0.003975,0.011628,74
1784729909050000,-1.668603,5.503046,7.892863,-0.007693,-0.006129,0.011497,75
1784729909060000,-1.726361,5.469501,7.869935,-0.007173,-0.006636,0.010928,76
1784729909070000,-1.683041,5.483894,7.888409,-0.006443,-0.003428,0.010594,77
1784729909080000,-1.682846,5.498336,7.902629,-0.002673,-0.003913,0.008958,78
1784729909090000,-1.673032,5.503213,7.921585,0.003373,-0.002740,0.005817,79
1784729909100000,-1.692453,5.517476,7.897820,0.005602,-0.002114,0.003710,80
1784729909111000,-1.673507,5.503000,7.883367,0.009993,-0.001483,0.001070,81
1784729909121000,-1.673637,5.493372,7.873887,0.010585,-0.000899,0.000033,82
1784729909131000,-1.678369,5.488620,7.878759,0.009074,0.000743,-0.000404,83
1784729909141000,-1.692913,5.478991,7.864676,0.007461,0.000762,-0.000406,84
1784729909151000,-1.688128,5.478982,7.864618,0.004253,0.001300,0.000160,85
1784729909161000,-1.688145,5.464620,7.864730,0.003153,0.001253,0.001231,86
1784729909171000,-1.683349,5.474186,7.864597,-0.000616,0.001737,0.002867,87
1784729909181000,-1.678558,5.478965,7.864502,-0.001685,0.002221,0.003971,88
1784729909191000,-1.668733,5.493417,7.883383,-0.002037,0.004971,0.002531,89
1784729909201000,-1.673578,5.493399,7.878664,0.001853,0.006610,0.001028,90
1784729909211000,-1.673631,5.498159,7.873849,0.002517,0.008286,-0.000477,91
1784729909221000,-1.692636,5.512609,7.883525,0.004680,0.008291,-0.001011,92
1784729909231000,-1.687862,5.503026,7.883542,0.005809,0.008869,-0.002048,93
1784729909241000,-1.697416,5.517405,7.883546,0.007367,0.007348,-0.003753,94
1784729909251000,-1.707110,5.512581,7.874145,0.007337,0.006817,-0.003787,95
1784729909261000,-1.726186,5.517429,7.879117,0.006781,0.006323,-0.004356,96
1784729909271000,-1.707121,5.503006,7.874219,0.007331,0.006347,-0.004891,97
1784729909281000,-1.731177,5.493420,7.865030,0.007229,0.004724,-0.004456,98
1784729909291000,-1.712037,5.493387,7.864798,0.005532,0.003621,-0.003454,99
1784729909301000,-1.721612,5.488616,7.864951,0.006027,0.003054,-0.002951,100
1784729909311000,-1.745699,5.502940,7.850798,0.001576,0.001362,-0.000378,101
1784729909321000,-1.755470,5.483728,7.836731,-0.002882,-0.000801,0.001091,102
1784729909331000,-1.740866,5.493384,7.855591,-0.003062,-0.003075,0.003635,103
1784729909341000,-1.731296,5.493367,7.855475,-0.006516,-0.006342,0.005573,104
1784729909351000,-1.721646,5.459891,7.865174,-0.008745,-0.006968,0.007680,105
1784729909361000,-1.697602,5.459902,7.874438,-0.008165,-0.006413,0.007178,106
1784729909371000,-1.702322,5.464725,7.879236,-0.003224,-0.004847,0.006748,107
1784729909381000,-1.692676,5.479097,7.883786,0.000069,-0.004264,0.005178,108
1784729909391000,-1.692659,5.493459,7.883674,0.001790,-0.003101,0.003104,109
1784729909401000,-1.697622,5.493388,7.869400,0.003522,-0.001908,0.000494,110
1784729909411000,-1.711972,5.498200,7.869537,0.002997,-0.001872,-0.000042,111
1784729909421000,-1.716697,5.498235,7.874372,0.002429,-0.002396,-0.000076,112
1784729909431000,-1.731397,5.507676,7.845809,0.003462,-0.002970,0.000427,113
1784729909441000,-1.712257,5.507642,7.845576,-0.001557,-0.005187,0.002967,114
1784729909451000,-1.707223,5.517315,7.864553,-0.005477,-0.007356,0.004436,115
1784729909461000,-1.697492,5.503016,7.878881,-0.008208,-0.007885,0.004935,116
1784729909471000,-1.678541,5.493328,7.864390,-0.008788,-0.008440,0.005437,117
1784729909481000,-1.692842,5.488592,7.869379,-0.009307,-0.007933,0.006005,118
1784729909491000,-1.692837,5.493379,7.869342,-0.009875,-0.008457,0.005971,119
1784729909501000,-1.683089,5.493443,7.883558,-0.009857,-0.007956,0.006540,120
1784729909511000,-1.697557,5.498202,7.874140,-0.010848,-0.006822,0.005535,121
1784729909521000,-1.707090,5.479095,7.879183,-0.010341,-0.007359,0.005502,122
1784729909531000,-1.697563,5.493414,7.874177,-0.009833,-0.007896,0.005469,123
1784729909541000,-1.692622,5.474336,7.888600,-0.007030,-0.006275,0.004501,124
1784729909551000,-1.683046,5.479107,7.888446,-0.005363,-0.005703,0.003465,125
1784729909561000,-1.683207,5.493389,7.874003,-0.004258,-0.005185,0.003500,126
1784729909571000,-1.687944,5.483849,7.878913,-0.004192,-0.004564,0.001926,127
1784729909581000,-1.683219,5.483814,7.874077,-0.005207,-0.003490,0.001992,128
1784729909591000,-1.692628,5.469549,7.888637,-0.003570,-0.003449,0.000923,129
1784729909601000,-1.692687,5.469522,7.883860,-0.003594,-0.003509,0.001994,130
1784729909611000,-1.687831,5.479115,7.888505,-0.002035,-0.004119,0.003033,131
1784729909621000,-1.683165,5.479053,7.878892,-0.000887,-0.003040,0.002566,132
1784729909631000,-1.683094,5.488655,7.883595,-0.001401,-0.002973,0.001494,133
1784729909641000,-1.687933,5.493424,7.878839,-0.000815,-0.001948,0.002097,134
1784729909651000,-1.697450,5.488680,7.883770,-0.002416,-0.001899,0.001560,135
1784729909661000,-1.697591,5.469477,7.874363,-0.001335,-0.001441,0.002666,136
1784729909671000,-1.692794,5.479043,7.874231,-0.000851,-0.002038,0.003704,137
1784729909681000,-1.697461,5.479105,7.883844,-0.000821,-0.001507,0.003737,138
1784729909691000,-1.687956,5.474274,7.878987,-0.000833,-0.001538,0.004273,139
1784729909701000,-1.687826,5.483902,7.888467,-0.001908,-0.001525,0.004272,140
1784729909711000,-1.678315,5.483859,7.883574,-0.001382,-0.001561,0.004808,141
1784729909721000,-1.683029,5.493469,7.888335,-0.001866,-0.000964,0.003770,142
1784729909731000,-1.682976,5.488708,7.893149,-0.000749,-0.000416,0.003269,143
1784729909741000,-1.683041,5.483894,7.888409,0.000949,0.000687,0.002266,144
1784729909751000,-1.687998,5.488610,7.874098,0.000393,0.000193,0.001696,145
1784729909761000,-1.697450,5.488680,7.883770,0.001480,0.000210,0.001162,146
1784729909771000,-1.692676,5.479097,7.883786,0.000416,0.000253,0.000625,147
1784729909781000,-1.697585,5.474265,7.874326,0.002060,0.000765,0.000660,148
1784729909791000,-1.697563,5.493414,7.874177,0.003135,0.000752,0.000661,149
1784729909801000,-1.688063,5.483796,7.869358,0.000972,0.000747,0.001195,150
1784729909811000,-1.687885,5.483876,7.883690,0.000423,0.000723,0.001730,151
1784729909821000,-1.683159,5.483841,7.878855,0.000972,0.000747,0.001195,152
1784729909831000,-1.692783,5.488618,7.874156,0.000991,0.001248,0.001764,153
1784729909841000,-1.692724,5.488645,7.878934,0.000930,0.000186,0.001697,154
1784729909851000,-1.692670,5.483884,7.883749,0.001498,0.000711,0.001731,155
1784729909861000,-1.688004,5.483822,7.874135,0.000423,0.000723,0.001730,156
1784729909871000,-1.692670,5.483884,7.883749,0.000411,0.000693,0.002266,157
1784729909881000,-1.702317,5.469512,7.879199,0.000369,0.000132,0.002768,158
1784729909891000,-1.697503,5.493441,7.878955,0.000918,0.000156,0.002233,159
1784729909901000,-1.683213,5.488602,7.874040,0.002012,0.000644,0.002803,160
1784729909911000,-1.697385,5.493495,7.888509,0.001468,0.000180,0.001698,161
1784729909921000,-1.692724,5.488645,7.878934,0.002586,0.000728,0.001196,162
1784729909931000,-1.683089,5.493443,7.883558,0.002562,0.000668,0.002268,163
1784729909941000,-1.697455,5.483893,7.883807,0.001540,0.001272,0.001229,164
1784729909951000,-1.687944,5.483849,7.878913,0.000991,0.001248,0.001764,165
1784729909961000,-1.697450,5.488680,7.883770,-0.000079,0.001731,0.002868,166
1784729909971000,-1.692789,5.483831,7.874194,-0.000115,0.000730,0.001729,167
1784729909981000,-1.692718,5.493433,7.878897,0.000411,0.000693,0.002266,168
1784729909991000,-1.678422,5.493381,7.873945,0.000411,0.000693,0.002266,169
1784729910001000,-1.697515,5.483866,7.879029,-0.000157,0.000169,0.002232,170
1784729910011000,-1.688009,5.479035,7.874173,0.001994,0.000144,0.002234,171
1784729910021000,-1.683100,5.483868,7.883632,0.001600,0.002333,0.001296,172
1784729910031000,-1.692724,5.488645,7.878934,0.002078,0.001265,0.001229,173
1784729910041000,-1.687868,5.498238,7.883579,0.001552,0.001302,0.000693,174
1784729910051000,-1.697455,5.483893,7.883807,0.001540,0.001272,0.001229,175
1784729910061000,-1.692789,5.483831,7.874194,0.000435,0.000753,0.001194,176
1784729910071000,-1.692664,5.488672,7.883711,0.001456,0.000150,0.002233,177
1784729910081000,-1.688004,5.483822,7.874135,0.000465,0.001284,0.001228,178
1784729910091000,-1.683024,5.498257,7.888298,-0.000085,0.001260,0.001763,179
1784729910101000,-1.697509,5.488654,7.878992,0.000960,0.000717,0.001730,180
1784729910111000,-1.692789,5.483831,7.874194,-0.000115,0.000730,0.001729,181
1784729910121000,-1.692659,5.493459,7.883674,-0.000169,0.000139,0.002767,182
1784729910132000,-1.692735,5.479070,7.879008,-0.001782,0.000158,0.002766,183
1784729910141000,-1.688052,5.493371,7.869284,-0.001758,0.000218,0.001694,184
1784729910152000,-1.702317,5.469512,7.879199,-0.000695,0.000175,0.002231,185
1784729910162000,-1.683111,5.474293,7.883707,-0.001268,0.000091,0.003837,186
1784729910172000,-1.697520,5.479079,7.879066,0.001982,0.000113,0.002769,187
1784729910182000,-1.692848,5.483804,7.869416,0.001505,0.001181,0.002836,188
1784729910192000,-1.683219,5.483814,7.874077,0.002634,0.001760,0.001799,189
1784729910202000,-1.688009,5.479035,7.874173,0.003716,0.002218,0.002905,190
1784729910212000,-1.692670,5.483884,7.883749,0.005341,0.002229,0.002371,191
1784729910222000,-1.692676,5.479097,7.883786,0.005830,0.001191,0.001769,192
1784729910232000,-1.683154,5.488628,7.878818,0.004827,0.002295,0.001299,193
1784729910242000,-1.697574,5.483840,7.874252,0.004755,0.001204,0.001768,194
1784729910252000,-1.692777,5.493406,7.874119,-0.000139,0.000670,0.002801,195
1784729910262000,-1.697498,5.498229,7.878918,0.000351,-0.000368,0.002199,196
1784729910272000,-1.692814,5.512529,7.869193,-0.002918,-0.000891,0.002697,197
1784729910282000,-1.678126,5.493514,7.897831,-0.001263,-0.000349,0.002197,198
1784729910292000,-1.687922,5.502999,7.878764,0.000428,0.000283,0.000090,199
1784729910302000,-1.683041,5.483894,7.888409,0.001528,0.000330,-0.000980,200
1784729910312000,-1.688063,5.483796,7.869358,0.002077,0.000354,-0.001516,201
1784729910322000,-1.683196,5.502964,7.873929,0.002083,0.000825,-0.000411,202
1784729910332000,-1.687761,5.488717,7.893208,0.001618,0.001923,-0.000880,203
1784729910342000,-1.668722,5.502992,7.883309,0.000561,0.002436,-0.000312,204
1784729910352000,-1.673357,5.479143,7.897885,0.001955,0.008232,0.000593,205
1784729910362000,-1.654118,5.512648,7.902169,0.008243,0.014562,0.000466,206
1784729910372000,-1.654155,5.531771,7.897243,0.017780,0.030915,0.001513,207
1784729910382000,-1.663903,5.531708,7.883027,0.025067,0.054321,0.000850,208
1784729910392000,-1.649285,5.603574,7.896626,0.028367,0.073114,-0.002260,209
1784729910402000,-1.591499,5.761539,7.909031,0.036804,0.077597,-0.007876,210
1784729910412000,-1.768505,5.345582,7.957418,0.027096,0.066267,-0.012907,211
1784729910422000,-1.783841,5.469576,7.865856,0.007402,0.051096,-0.013897,212
1784729910432000,-1.769178,5.479259,7.889493,0.010643,0.041998,-0.013927,213
1784729910442000,-1.774754,5.411923,7.832746,0.015800,0.029099,-0.013118,214
1784729910452000,-1.817871,5.368912,7.833604,0.015469,0.024172,-0.010742,215
1784729910462000,-1.803561,5.431070,7.823391,0.017516,0.014786,-0.005417,216
1784729910472000,-1.789081,5.435886,7.832734,0.016074,0.009780,-0.001435,217
1784729910482000,-1.788875,5.459903,7.846879,0.009153,0.003216,0.002977,218
1784729910492000,-1.788793,5.479079,7.851508,0.005578,-0.002174,0.004781,219
1784729910502000,-1.774254,5.483921,7.865628,0.001658,-0.004343,0.006250,220
1784729910512000,-1.755210,5.502984,7.855691,0.001072,-0.005369,0.005647,221
1784729910522000,-1.750442,5.488613,7.855745,-0.001127,-0.006375,0.005043,222
1784729910532000,-1.750453,5.479038,7.855820,-0.000656,-0.007913,0.003871,223
1784729910542000,-1.740871,5.488596,7.855628,-0.001224,-0.008438,0.003837,224
1784729910552000,-1.755286,5.488595,7.851026,-0.003549,-0.011127,0.004739,225
1784729910562000,-1.745651,5.493392,7.855649,-0.005911,-0.014817,0.004502,226
1784729910572000,-1.745662,5.483817,7.855724,-0.006641,-0.018025,0.004836,227
1784729910582000,-1.750399,5.474277,7.860634,-0.006833,-0.021240,0.005171,228
1784729910592000,-1.750264,5.488693,7.870077,-0.006894,-0.022302,0.005104,229
1784729910602000,-1.740806,5.493411,7.860369,-0.006948,-0.023804,0.003397,230
1784729910612000,-1.731166,5.502995,7.864955,-0.010235,-0.024828,0.003326,231
1784729910622000,-1.716929,5.502916,7.855226,-0.010223,-0.024797,0.002791,232
1784729910632000,-1.712085,5.502935,7.859945,-0.010181,-0.024237,0.002289,233
1784729910642000,-1.707348,5.512475,7.855035,-0.017895,-0.026892,0.003721,234
1784729910652000,-1.711836,5.512616,7.878980,-0.016778,-0.026344,0.003220,235
1784729910662000,-1.702444,5.512519,7.864532,-0.016222,-0.025850,0.003789,236
1784729910672000,-1.692891,5.498140,7.864528,-0.016658,-0.024221,0.003354,237
1784729910682000,-1.687981,5.502972,7.873987,-0.013287,-0.022076,0.002420,238
1784729910692000,-1.692814,5.512529,7.869193,-0.015306,-0.019897,0.002016,239
1784729910702000,-1.697492,5.503016,7.878881,-0.012515,-0.018306,0.001583,240
1784729910712000,-1.707257,5.488591,7.864777,-0.012902,-0.015646,0.001750,241
1784729910722000,-1.683207,5.493389,7.874003,-0.011271,-0.015164,0.002321,242
1784729910732000,-1.692664,5.488672,7.883711,-0.008492,-0.013603,0.002424,243
1784729910742000,-1.707138,5.488644,7.874331,-0.008299,-0.010389,0.002090,244
1784729910752000,-1.707079,5.488670,7.879108,-0.008125,-0.007674,0.001186,245
1784729910762000,-1.697546,5.507777,7.874065,-0.008251,-0.009357,0.002692,246
1784729910772000,-1.726166,5.483943,7.884156,-0.008149,-0.007735,0.002257,247
1784729910782000,-1.707073,5.493458,7.879071,-0.009278,-0.008313,0.003294,248
1784729910792000,-1.711805,5.488706,7.883944,-0.009386,-0.009495,0.005369,249
1784729910802000,-1.706972,5.479149,7.888737,-0.009421,-0.009585,0.006976,250
1784729910812000,-1.707155,5.474281,7.874443,-0.007802,-0.009134,0.008082,251
1784729910822000,-1.697467,5.474318,7.883881,-0.007802,-0.009134,0.008082,252
1784729910832000,-1.711881,5.474317,7.879278,-0.006738,-0.009176,0.008619,253
1784729910842000,-1.692693,5.464735,7.883898,-0.006254,-0.009774,0.009657,254
1784729910852000,-1.697424,5.459982,7.888770,-0.006762,-0.009236,0.009690,255
1784729910862000,-1.702246,5.479114,7.883902,-0.007873,-0.009314,0.011296,0
1784729910872000,-1.697396,5.483920,7.888584,-0.006308,-0.009453,0.013440,1
1784729910882000,-1.707161,5.469494,7.874480,-0.007473,-0.011033,0.013338,2
1784729910892000,-1.688046,5.498158,7.869246,-0.009822,-0.013782,0.015311,3
1784729910902000,-1.687885,5.483876,7.883690,-0.012649,-0.015463,0.017350,4
1784729910912000,-1.692546,5.488725,7.893266,-0.012721,-0.016555,0.017819,5
1784729910922000,-1.682998,5.469559,7.893299,-0.014328,-0.016065,0.018922,6
1784729910932000,-1.673459,5.493452,7.888218,-0.013850,-0.017133,0.018856,7
1784729910942000,-1.654163,5.474349,7.902467,-0.012159,-0.016501,0.016748,8
1784729910952000,-1.639737,5.483925,7.906995,-0.011412,-0.013703,0.014238,9
1784729910962000,-1.678041,5.464842,7.907609,-0.009654,-0.011539,0.013303,10
1784729910972000,-1.653974,5.484004,7.916724,-0.005782,-0.010401,0.011231,11
1784729910982000,-1.668584,5.469560,7.897902,-0.005650,-0.008248,0.010829,12
1784729910992000,-1.668595,5.459985,7.897976,-0.002268,-0.006072,0.009360,13
1784729911002000,-1.678267,5.474311,7.888426,-0.003313,-0.005529,0.009392,14
1784729911012000,-1.663977,5.469471,7.883512,-0.002805,-0.006066,0.009359,15
1784729911022000,-1.668762,5.469480,7.883570,-0.001568,-0.003394,0.008992,16
1784729911032000,-1.673470,5.483877,7.888293,-0.002093,-0.003358,0.008456,17
1784729911042000,-1.663787,5.479126,7.897769,-0.003641,-0.002718,0.006881,18
1784729911052000,-1.673352,5.483930,7.897848,-0.003671,-0.003249,0.006848,19
1784729911062000,-1.654158,5.479136,7.902430,-0.003719,-0.004280,0.006245,20
1784729911072000,-1.673428,5.469542,7.893182,-0.002590,-0.003702,0.005208,21
1784729911082000,-1.673541,5.474276,7.883591,-0.003140,-0.003726,0.005744,22
1784729911092000,-1.673411,5.483904,7.893070,-0.004233,-0.004214,0.005173,23
1784729911102000,-1.673417,5.479116,7.893107,-0.004263,-0.004745,0.005140,24
1784729911112000,-1.668626,5.483896,7.893012,-0.004270,-0.005215,0.004035,25
1784729911122000,-1.673499,5.459940,7.888479,-0.004777,-0.004678,0.004068,26
1784729911132000,-1.659067,5.474304,7.892971,-0.004228,-0.004654,0.003533,27
1784729911142000,-1.668519,5.474374,7.902641,-0.004156,-0.003563,0.003064,28
1784729911153000,-1.659002,5.479117,7.897711,-0.001437,-0.003063,0.003101,29
1784729911163000,-1.654223,5.474322,7.897690,-0.001413,-0.003003,0.002029,30
1784729911173000,-1.649604,5.483809,7.883225,-0.002477,-0.002961,0.001493,31
1784729911183000,-1.663793,5.474339,7.897806,-0.000810,-0.002389,0.000457,32
1784729911193000,-1.654223,5.474322,7.897690,-0.000266,-0.001924,0.001562,33
1784729911203000,-1.659197,5.464675,7.883491,-0.001909,-0.002436,0.001527,34
1784729911213000,-1.663793,5.474339,7.897806,-0.001383,-0.002472,0.002063,35
1784729911223000,-1.668702,5.469507,7.888347,-0.001347,-0.001471,0.003201,36
1784729911233000,-1.654288,5.469508,7.892950,-0.000271,-0.001484,0.003202,37
1784729911243000,-1.663858,5.469525,7.893066,-0.002518,-0.002610,0.004740,38
1784729911253000,-1.654175,5.464774,7.902541,-0.003002,-0.002013,0.003702,39
1784729911263000,-1.659013,5.469543,7.897785,-0.001358,-0.001501,0.003737,40
1784729911273000,-1.659008,5.474330,7.897748,-0.000802,-0.001007,0.004306,41
1784729911283000,-1.649313,5.479154,7.907149,-0.001316,-0.000940,0.003235,42
1784729911293000,-1.659008,5.474330,7.897748,-0.000725,-0.000356,0.002197,43
1784729911303000,-1.658954,5.469569,7.902562,-0.000157,0.000169,0.002232,44
1784729911313000,-1.668465,5.469613,7.907456,0.000895,0.000096,0.003304,45
1784729911323000,-1.663799,5.469551,7.897843,0.000900,-0.000345,0.001663,46
1784729911333000,-1.663852,5.474312,7.893029,0.001408,-0.000882,0.001631,47
1784729911343000,-1.663799,5.469551,7.897843,0.000912,-0.000314,0.001128,48
1784729911353000,-1.649562,5.469473,7.888114,0.001994,0.000144,0.002234,49
1784729911363000,-1.654276,5.479083,7.892875,0.002060,0.000765,0.000660,50
1784729911373000,-1.663906,5.479073,7.888214,0.001498,0.000711,0.001731,51
1784729911383000,-1.654347,5.469481,7.888172,0.000882,-0.000845,0.001094,52
1784729911393000,-1.654336,5.479056,7.888098,-0.000659,0.000265,0.000624,53
1784729911403000,-1.654395,5.479030,7.883321,-0.001173,0.000332,-0.000448,54
1784729911413000,-1.649545,5.483835,7.888002,-0.001113,0.001394,-0.000381,55
1784729911423000,-1.649443,5.469526,7.897669,-0.000605,0.000856,-0.000414,56
1784729911433000,-1.659013,5.469543,7.897785,-0.001651,0.001400,-0.000381,57
1784729911443000,-1.663804,5.464764,7.897881,0.000005,0.001942,-0.000882,58
1784729911453000,-1.668601,5.455197,7.898013,-0.000533,0.001948,-0.000882,59
1784729911463000,-1.668595,5.459985,7.897976,0.000954,0.000246,0.000626,60
1784729911473000,-1.673380,5.459993,7.898034,-0.000073,0.001291,0.001227,61
1784729911483000,-1.654293,5.464721,7.892987,0.000423,0.000723,0.001730,62
1784729911493000,-1.663869,5.459950,7.893140,0.002006,0.000174,0.001698,63
1784729911503000,-1.659025,5.459968,7.897860,0.000949,0.000687,0.002266,64
1784729911513000,-1.663626,5.464844,7.912212,0.002024,0.000674,0.002267,65
1784729911523000,-1.659067,5.474304,7.892971,0.002580,0.001169,0.002837,66
1784729911533000,-1.663810,5.459976,7.897918,0.002592,0.001199,0.002301,67
1784729911543000,-1.678272,5.469523,7.888463,0.001493,0.001151,0.003371,68
1784729911553000,-1.668643,5.469533,7.893124,0.001474,0.000651,0.002802,69
1784729911563000,-1.668584,5.469560,7.897902,0.000399,0.000663,0.002801,70
1784729911573000,-1.663745,5.464790,7.902658,-0.000742,0.000055,0.004373,71
1784729911583000,-1.659008,5.474330,7.897748,0.000345,0.000072,0.003839,72
1784729911593000,-1.663804,5.464764,7.897881,0.000823,-0.000996,0.003772,73
1784729911603000,-1.649486,5.483862,7.892780,0.002012,0.000644,0.002803,74
1784729911613000,-1.654098,5.479163,7.907207,0.003069,0.000131,0.002235,75
1784729911623000,-1.663782,5.483913,7.897731,0.002036,0.000704,0.001732,76
1784729911633000,-1.663846,5.479100,7.892992,0.002090,0.001295,0.000694,77
1784729911643000,-1.654200,5.493472,7.897541,0.001540,0.001272,0.001229,78
1784729911653000,-1.659126,5.474277,7.888193,0.000488,0.001344,0.000157,79
1784729911663000,-1.659073,5.469516,7.893008,-0.000019,0.001882,0.000190,80
1784729911673000,-1.659073,5.469516,7.893008,-0.000049,0.001351,0.000156,81
1784729911683000,-1.654206,5.488684,7.897578,0.001678,0.002984,-0.000813,82
1784729911693000,-1.668702,5.469507,7.888347,0.000633,0.003528,-0.000781,83
1784729911703000,-1.678284,5.459949,7.888537,0.000603,0.002997,-0.000814,84
1784729911713000,-1.668648,5.464746,7.893161,0.001212,0.004082,-0.001282,85
1784729911723000,-1.659073,5.469516,7.893008,0.002300,0.004100,-0.001817,86
1784729911733000,-1.663815,5.455189,7.897955,0.001242,0.004613,-0.001249,87
1784729911743000,-1.673374,5.464780,7.897997,0.005025,0.005070,-0.000676,88
1784729911753000,-1.682956,5.455223,7.898188,0.004391,0.003924,0.000863,89
1784729911763000,-1.663793,5.474339,7.897806,0.005502,0.004002,-0.000742,90
1784729911773000,-1.673510,5.450365,7.888554,0.007080,0.003892,0.000866,91
1784729911783000,-1.673487,5.469515,7.888405,0.009375,0.006051,-0.000069,92
1784729911793000,-1.629695,5.531969,7.939948,0.015074,0.002706,0.001343,93
1784729911803000,-1.663471,5.445774,7.926693,0.010156,0.001201,0.000702,94
1784729911813000,-1.682885,5.464824,7.902890,0.005220,0.000106,0.002237,95
1784729911823000,-1.678030,5.474417,7.907535,0.002508,0.000077,0.003305,96
1784729911833000,-1.682928,5.479160,7.898001,0.001874,-0.001068,0.004845,97
1784729911843000,-1.673405,5.488691,7.893033,0.000703,-0.002208,0.006383,98
1784729911853000,-1.663717,5.488728,7.902471,-0.000300,-0.001103,0.005914,99
1784729911863000,-1.673476,5.479090,7.888330,0.000165,-0.002201,0.006383,100
1784729911873000,-1.668442,5.488763,7.907307,-0.000361,-0.002165,0.005847,101
1784729911883000,-1.663787,5.479126,7.897769,-0.000337,-0.002105,0.004776,102
1784729911893000,-1.663965,5.479046,7.883437,-0.000886,-0.002129,0.005311,103
1784729911903000,-1.663906,5.479073,7.888214,-0.000833,-0.001538,0.004273,104
1784729911913000,-1.668691,5.479082,7.888272,0.000261,-0.001050,0.004843,105
1784729911923000,-1.668572,5.479135,7.897827,0.000859,0.000006,0.004911,106
1784729911933000,-1.668603,5.503046,7.892863,0.001379,-0.000501,0.004342,107
1784729911943000,-1.654324,5.488631,7.888023,0.002550,0.000638,0.002803,108
1784729911953000,-1.663906,5.479073,7.888214,0.000369,0.000132,0.002768,109
1784729911963000,-1.673422,5.474329,7.893145,0.001456,0.000150,0.002233,110
1784729911973000,-1.659121,5.479064,7.888156,0.000393,0.000193,0.001696,111
1784729911983000,-1.663846,5.479100,7.892992,-0.001800,-0.000343,0.002196,112
1784729911993000,-1.659174,5.483825,7.883342,-0.000121,0.000259,0.000625,113
1784729912003000,-1.663954,5.488621,7.883362,-0.002810,0.000291,0.000622,114
1784729912013000,-1.664013,5.488595,7.878585,0.000035,0.002473,-0.000848,115
1784729912023000,-1.673530,5.483850,7.883516,-0.000056,0.000880,-0.000949,116
1784729912033000,-1.678315,5.483859,7.883574,-0.000533,0.001948,-0.000882,117
1784729912043000,-1.673665,5.469435,7.874073,0.000566,0.001996,-0.001952,118
1784729912053000,-1.683052,5.474319,7.888484,0.000016,0.001972,-0.001417,119
1784729912063000,-1.673482,5.474302,7.888368,-0.001083,0.001924,-0.000347,120
1784729912073000,-1.673422,5.474329,7.893145,0.003219,0.001874,-0.000343,121
1784729912083000,-1.673541,5.474276,7.883591,0.002162,0.002387,0.000225,122
1784729912093000,-1.664042,5.464657,7.878771,-0.000031,0.001851,0.000725,123
1784729912103000,-1.668606,5.450410,7.898050,0.003267,0.002905,0.000260,124
1784729912114000,-1.668685,5.483869,7.888235,0.004247,0.001741,0.001801,125
1784729912123000,-1.683106,5.479080,7.883669,0.004337,0.003333,0.001901,126
1784729912133000,-1.673535,5.479063,7.883553,0.003728,0.002248,0.002369,127
1784729912143000,-1.658996,5.483905,7.897674,0.003716,0.002218,0.002905,128
1784729912153000,-1.668626,5.483896,7.893012,0.005848,0.001692,0.002338,129
1784729912163000,-1.663917,5.469498,7.888288,0.004761,0.001674,0.002872,130
1784729912173000,-1.673417,5.479116,7.893107,0.004773,0.001704,0.002337,131
1784729912184000,-1.668561,5.488709,7.897752,0.004247,0.001741,0.001801,132
1784729912194000,-1.663895,5.488648,7.888139,0.003183,0.001783,0.001264,133
1784729912204000,-1.668555,5.493497,7.897715,0.003207,0.001844,0.000193,134
1784729912214000,-1.673459,5.493452,7.888218,0.001564,0.001332,0.000158,135
1784729912224000,-1.678244,5.493461,7.888277,0.000991,0.001248,0.001764,136
1784729912234000,-1.673417,5.479116,7.893107,0.000363,-0.000338,0.001663,137
1784729912244000,-1.673411,5.483904,7.893070,-0.000163,-0.000302,0.001127,138
1784729912254000,-1.663906,5.479073,7.888214,0.001468,0.000180,0.001698,139
1784729912264000,-1.673524,5.488638,7.883479,-0.000133,0.000229,0.001160,140
1784729912274000,-1.673470,5.483877,7.888293,-0.000713,-0.000326,0.001662,141
1784729912284000,-1.673405,5.488691,7.893033,-0.000043,0.001821,0.001261,142
1784729912294000,-1.678380,5.479045,7.878834,-0.000073,0.001291,0.001227,143
1784729912304000,-1.664019,5.483807,7.878622,-0.000671,0.000235,0.001160,144
1784729912314000,-1.678391,5.469470,7.878909,-0.002296,0.000224,0.001694,145
1784729912324000,-1.668762,5.469480,7.883570,-0.000683,0.000205,0.001695,146
1784729912334000,-1.673417,5.479116,7.893107,-0.001251,-0.000319,0.001661,147
1784729912344000,-1.673470,5.483877,7.888293,-0.001232,0.000181,0.002230,148
1784729912354000,-1.678321,5.479072,7.883611,-0.002864,-0.000300,0.001660,149
1784729912364000,-1.678250,5.488673,7.888314,-0.002368,-0.000867,0.002162,150
1784729912374000,-1.678278,5.464736,7.888500,-0.001902,-0.001965,0.002632,151
1784729912384000,-1.673535,5.479063,7.883553,-0.003020,-0.002514,0.003133,152
1784729912394000,-1.668750,5.479055,7.883495,-0.002482,-0.002520,0.003133,153
1784729912404000,-1.673459,5.493452,7.888218,-0.002452,-0.001989,0.003167,154
1784729912414000,-1.663906,5.479073,7.888214,-0.000289,-0.001984,0.002633,155
1784729912424000,-1.668637,5.474321,7.893087,-0.001347,-0.001471,0.003201,156
1784729912434000,-1.678213,5.469550,7.893240,0.000786,-0.001997,0.002634,157
1784729912444000,-1.663841,5.483887,7.892954,0.000237,-0.002021,0.003169,158
1784729912454000,-1.673482,5.474302,7.888368,0.000804,-0.001496,0.003203,159
1784729912464000,-1.663835,5.488675,7.892917,0.000834,-0.000966,0.003237,160
1784729912474000,-1.673476,5.479090,7.888330,0.000793,-0.001526,0.003739,161
1784729912484000,-1.663906,5.479073,7.888214,0.000225,-0.002051,0.003705,162
1784729912494000,-1.673465,5.488665,7.888256,-0.000295,-0.001544,0.004273,163
1784729912504000,-1.663900,5.483860,7.888176,-0.001347,-0.001471,0.003201,164
1784729912514000,-1.663965,5.479046,7.883437,0.000309,-0.000929,0.002701,165
1784729912524000,-1.668697,5.474294,7.888309,-0.001281,-0.000850,0.001628,166
1784729912534000,-1.673346,5.488718,7.897810,-0.000773,-0.001387,0.001595,167
1784729912544000,-1.668578,5.474347,7.897864,-0.000773,-0.001387,0.001595,168
1784729912554000,-1.663846,5.479100,7.892992,0.000260,-0.001961,0.002098,169
1784729912564000,-1.678159,5.464789,7.898055,-0.000205,-0.000863,0.001629,170
1784729912574000,-1.673417,5.479116,7.893107,0.000840,-0.001406,0.001596,171
1784729912584000,-1.673428,5.469542,7.893182,0.000344,-0.000839,0.001094,172
1784729912594000,-1.668697,5.474294,7.888309,0.000465,0.001284,0.001228,173
1784729912604000,-1.668702,5.469507,7.888347,0.000949,0.000687,0.002266,174
1784729912614000,-1.673422,5.474329,7.893145,0.001444,0.000120,0.002769,175
1784729912624000,-1.668572,5.479135,7.897827,0.000942,0.000216,0.001161,176
1784729912634000,-1.663971,5.474259,7.883474,0.000979,0.001218,0.002300,177
1784729912644000,-1.668756,5.474267,7.883533,0.002186,0.003358,0.001899,178
1784729912654000,-1.673476,5.479090,7.888330,0.001649,0.003365,0.001899,179
1784729912664000,-1.683219,5.483814,7.874077,0.002133,0.002767,0.002937,180
1784729912674000,-1.673422,5.474329,7.893145,0.001039,0.002279,0.002367,181
1784729912684000,-1.663852,5.474312,7.893029,0.001577,0.002273,0.002367,182
1784729912694000,-1.668691,5.479082,7.888272,0.002054,0.001205,0.002301,183
1784729912704000,-1.673530,5.483850,7.883516,0.003160,0.001723,0.002335,184
1784729912714000,-1.673411,5.483904,7.893070,0.002604,0.001229,0.001766,185
1784729912724000,-1.682981,5.483921,7.893187,0.002036,0.000704,0.001732,186
1784729912734000,-1.678202,5.479125,7.893166,0.002592,0.001199,0.002301,187
1784729912744000,-1.673422,5.474329,7.893145,0.002622,0.001730,0.002335,188
1784729912754000,-1.673417,5.479116,7.893107,0.001546,0.001742,0.002334,189
1784729912764000,-1.668810,5.479028,7.878718,0.002664,0.002290,0.001833,190
1784729912774000,-1.668615,5.493471,7.892938,0.002126,0.002297,0.001832,191
1784729912784000,-1.668804,5.483816,7.878680,0.000525,0.002346,0.001295,192
1784729912794000,-1.663900,5.483860,7.888176,0.001033,0.001809,0.001262,193
1784729912804000,-1.687766,5.483929,7.893245,0.002403,0.006633,0.000493,194
1784729912814000,-1.682981,5.483921,7.893187,0.001255,0.005554,0.000961,195
1784729912824000,-1.678202,5.479125,7.893166,0.001775,0.005047,0.000392,196
1784729912834000,-1.682916,5.488735,7.897927,0.002198,0.003388,0.001363,197
1784729912844000,-1.682933,5.474372,7.898038,0.002168,0.002858,0.001330,198
1784729912854000,-1.673470,5.483877,7.888293,0.002114,0.002267,0.002368,199
1784729912864000,-1.678213,5.469550,7.893240,0.003202,0.002284,0.001833,200
1784729912874000,-1.673487,5.469515,7.888405,0.003172,0.001753,0.001800,201
1784729912884000,-1.673405,5.488691,7.893033,0.003751,0.002308,0.001298,202
1784729912894000,-1.673465,5.488665,7.888256,0.003130,0.001192,0.002302,203
1784729912904000,-1.683046,5.479107,7.888446,0.003637,0.000655,0.002269,204
1784729912914000,-1.678250,5.488673,7.888314,0.001480,0.000210,0.001162,205
1784729912924000,-1.687826,5.483902,7.888467,0.001468,0.000180,0.001698,206
1784729912934000,-1.678309,5.488647,7.883537,-0.000229,-0.000923,0.002700,207
1784729912944000,-1.678261,5.479098,7.888388,0.000290,-0.001430,0.002132,208
1784729912954000,-1.683041,5.483894,7.888409,0.000786,-0.001997,0.002634,209
1784729912964000,-1.673357,5.479143,7.897885,-0.000869,-0.002539,0.003135,210
1784729912974000,-1.687879,5.488663,7.883653,-0.000929,-0.003601,0.003068,211
1784729912984000,-1.673417,5.479116,7.893107,0.000158,-0.003583,0.002533,212
1784729912994000,-1.687879,5.488663,7.883653,-0.000301,-0.002015,0.003169,213
1784729913004000,-1.678369,5.488620,7.878759,-0.000319,-0.002515,0.002600,214
1784729913014000,-1.668572,5.479135,7.897827,-0.000368,-0.003547,0.001997,215
1784729913024000,-1.673470,5.483877,7.888293,-0.001425,-0.003033,0.002565,216
1784729913034000,-1.673524,5.488638,7.883479,-0.000319,-0.002515,0.002600,217
1784729913044000,-1.673589,5.483824,7.878738,-0.003528,-0.001977,0.003166,218
1784729913054000,-1.673524,5.488638,7.883479,-0.003008,-0.002484,0.002597,219
1784729913064000,-1.678261,5.479098,7.888388,-0.000827,-0.001978,0.002633,220
1784729913074000,-1.683058,5.469532,7.888521,-0.001872,-0.001435,0.002665,221
1784729913084000,-1.678261,5.479098,7.888388,-0.000259,-0.001454,0.002667,222
1784729913094000,-1.673476,5.479090,7.888330,-0.000301,-0.002015,0.003169,223
1784729913104000,-1.668685,5.483869,7.888235,0.000865,-0.000435,0.003270,224
1784729913114000,-1.668804,5.483816,7.878680,0.000834,-0.000966,0.003237,225
1784729913124000,-1.663954,5.488621,7.883362,0.000804,-0.001496,0.003203,226
1784729913134000,-1.668632,5.479108,7.893050,0.000267,-0.001490,0.003203,227
1784729913144000,-1.673465,5.488665,7.888256,-0.000199,-0.000392,0.002734,228
1784729913154000,-1.673530,5.483850,7.883516,-0.000241,-0.000953,0.003236,229
1784729913164000,-1.683100,5.483868,7.883632,-0.000779,-0.000947,0.003235,230
1784729913174000,-1.673476,5.479090,7.888330,-0.000737,-0.000386,0.002733,231
1784729913184000,-1.683041,5.483894,7.888409,-0.000199,-0.000392,0.002734,232
1784729913194000,-1.673654,5.479010,7.873998,0.000369,0.000132,0.002768,233
1784729913205000,-1.673535,5.479063,7.883553,-0.001298,-0.000440,0.003804,234
1784729913215000,-1.673482,5.474302,7.888368,0.000339,-0.000398,0.002734,235
1784729913225000,-1.663965,5.479046,7.883437,-0.000187,-0.000362,0.002198,236
1784729913235000,-1.663906,5.479073,7.888214,0.001438,-0.000351,0.001664,237
1784729913245000,-1.663835,5.488675,7.892917,-0.000133,0.000229,0.001160,238
1784729913255000,-1.682916,5.488735,7.897927,-0.000187,-0.000362,0.002198,239
1784729913265000,-1.678148,5.474364,7.897981,-0.001758,0.000218,0.001694,240
1784729913275000,-1.683100,5.483868,7.883632,0.000404,0.000223,0.001161,241
1784729913285000,-1.678326,5.474284,7.883649,-0.000725,-0.000356,0.002197,242
1784729913295000,-1.678321,5.479072,7.883611,-0.001830,-0.000874,0.002163,243
1784729913305000,-1.678369,5.488620,7.878759,-0.001221,0.000212,0.001695,244
1784729913315000,-1.683154,5.488628,7.878818,-0.000187,-0.000362,0.002198,245
1784729913325000,-1.678315,5.483859,7.883574,-0.001770,0.000188,0.002230,246
1784729913335000,-1.668756,5.474267,7.883533,-0.001221,0.000212,0.001695,247
1784729913345000,-1.663770,5.493488,7.897657,0.003607,0.000125,0.002235,248
1784729913355000,-1.663900,5.483860,7.888176,0.003649,0.000685,0.001733,249
1784729913365000,-1.663895,5.488648,7.888139,0.002574,0.000698,0.001732,250
1784729913375000,-1.673470,5.483877,7.888293,0.003619,0.000155,0.001700,251
1784729913385000,-1.678439,5.479018,7.874056,0.001486,0.000681,0.002267,252
1784729913395000,-1.668733,5.493417,7.883383,0.000865,-0.000435,0.003270,253
1784729913405000,-1.673459,5.493452,7.888218,0.000937,0.000657,0.002802,254
1784729913415000,-1.664002,5.498169,7.878510,0.001463,0.000620,0.003338,255
1784729913425000,-1.668798,5.488603,7.878643,0.001528,0.001242,0.001765,0
1784729913435000,-1.673524,5.488638,7.883479,0.001002,0.001278,0.001228,1
1784729913445000,-1.668680,5.488657,7.888197,0.002048,0.000735,0.001196,2
1784729913455000,-1.673340,5.493505,7.897773,0.000435,0.000753,0.001194,3
1784729913465000,-1.678439,5.479018,7.874056,-0.000683,0.000205,0.001695,4
1784729913475000,-1.683171,5.474266,7.878929,-0.001812,-0.000373,0.002732,5
1784729913485000,-1.673595,5.479036,7.878776,-0.001830,-0.000874,0.002163,6
1784729913495000,-1.668739,5.488630,7.883420,-0.002422,-0.001458,0.003200,7
1784729913505000,-1.663900,5.483860,7.888176,-0.000767,-0.000917,0.002700,8
1784729913515000,-1.663776,5.488701,7.897694,-0.001788,-0.000313,0.001661,9
1784729913525000,-1.659115,5.483852,7.888119,-0.001221,0.000212,0.001695,10
1784729913535000,-1.663917,5.469498,7.888288,-0.000719,-0.000796,0.000557,11
1784729913545000,-1.678332,5.469497,7.883686,0.000356,-0.000809,0.000558,12
1784729913555000,-1.687891,5.479088,7.883728,0.002597,0.000758,0.000661,13
1784729913565000,-1.649892,5.440615,7.864451,0.009978,0.005754,-0.004387,14
1784729913575000,-1.847039,5.383112,7.795623,-0.003236,0.011039,-0.000851,15
1784729913585000,-1.702579,5.498104,7.855089,0.000177,0.014657,0.000457,16
1784729913595000,-1.692820,5.507741,7.869230,0.004196,0.009799,0.000696,17
1784729913605000,-1.688105,5.498132,7.864470,0.005665,0.006686,-0.001110,18
1784729913615000,-1.702472,5.488582,7.864718,0.006076,0.004997,0.000396,19
1784729913625000,-1.692741,5.474283,7.879045,0.003733,0.001807,0.000729,20
1784729913635000,-1.683089,5.493443,7.883558,0.000991,0.001248,0.001764,21
1784729913645000,-1.663889,5.493435,7.888102,0.001964,-0.000387,0.002200,22
1784729913655000,-1.664013,5.488595,7.878585,0.000955,0.001158,0.003371,23
1784729913665000,-1.649339,5.507852,7.902148,0.003758,0.002779,0.002403,24
1784729913675000,-1.649359,5.541337,7.897110,0.012594,0.016454,0.003817,25
1784729913685000,-1.611089,5.531695,7.896719,0.015731,0.031652,-0.001670,26
1784729913695000,-1.620159,5.402744,7.950391,0.016007,0.035989,-0.003008,27
1784729913705000,-1.528787,5.536766,7.972130,0.020503,0.045980,-0.010971,28
1784729913715000,-1.606318,5.469477,7.901923,0.032882,0.061782,-0.019629,29
1784729913725000,-1.573000,5.469338,7.887184,0.035726,0.062141,-0.026590,30
1784729913735000,-1.635427,5.483703,7.868719,0.042803,0.071830,-0.029729,31
1784729913745000,-1.688606,5.526617,7.821250,0.035033,0.066762,-0.032750,32
1784729913755000,-1.784505,5.560191,7.803043,0.022716,0.058848,-0.031657,33
1784729913765000,-1.836251,5.661166,7.865005,0.008254,0.051431,-0.029462,34
1784729913775000,-1.659008,5.775779,7.866737,-0.003969,0.070588,-0.035801,35
1784729913785000,-1.817560,5.632221,7.831555,-0.029693,0.080663,-0.038974,36
1784729913795000,-1.812620,5.613142,7.845978,-0.042391,0.075880,-0.036610,37
1784729913805000,-1.760105,5.560361,7.840971,-0.065700,0.073408,-0.035193,38
1784729913815000,-1.952102,5.258984,7.826534,-0.069689,0.061968,-0.030008,39
1784729913825000,-1.889551,5.349942,7.844180,-0.059012,0.045274,-0.019754,40
1784729913835000,-1.880716,5.229973,7.797222,-0.055611,0.031122,-0.015265,41
1784729913845000,-1.822303,5.316445,7.867513,-0.027040,0.014139,-0.013060,42
1784729913855000,-1.831534,5.503225,7.875731,-0.019765,0.009774,-0.012785,43
1784729913865000,-1.845850,5.436280,7.885982,-0.010930,0.003888,-0.014216,44
1784729913875000,-1.912965,5.431557,7.877278,-0.007972,-0.009105,-0.011267,45
1784729913885000,-1.825997,5.537048,7.932740,0.001326,-0.006999,-0.012731,46
1784729913895000,-1.840824,5.489013,7.899846,0.000084,-0.002403,-0.018356,47
1784729913905000,-1.792465,5.417383,7.947596,0.008621,-0.004036,-0.019519,48
1784729913915000,-1.667335,5.623237,7.982700,0.024443,0.015002,-0.029580,49
1784729913925000,-1.686792,5.556140,7.964345,0.027514,0.034584,-0.046616,50
1784729913935000,-1.724855,5.589799,7.978882,0.032106,0.045727,-0.056119,51
1784729913945000,-1.660315,5.758209,8.148804,0.046854,0.054778,-0.068423,52
1784729913955000,-1.612944,5.853607,8.099706,0.036925,0.063359,-0.086175,53
1784729913965000,-1.727527,5.873065,8.120061,0.029104,0.071353,-0.103423,54
1784729913975000,-1.741444,5.892427,8.153527,0.031601,0.062199,-0.121196,55
1784729913985000,-1.761172,5.896981,8.105949,0.026577,0.066339,-0.127394,56
1784729913995000,-2.030988,5.485122,8.002532,0.018772,0.028435,-0.115283,57
1784729914005000,-2.059602,5.466076,8.012585,0.060506,-0.007608,-0.099207,58
1784729914015000,-1.781380,5.394122,8.071875,0.072151,-0.042325,-0.081486,59
1784729914025000,-1.652487,5.034889,8.082653,0.112779,-0.051146,-0.065846,60
1784729914035000,-1.045362,4.641196,8.068769,0.179485,-0.054132,-0.073981,61
1784729914045000,-3.742073,5.171068,7.829880,0.260894,0.015475,-0.011402,62
1784729914055000,-0.720589,4.072625,9.230339,0.324343,-0.079407,-0.100049,63
1784729914065000,0.185322,5.297127,8.445294,0.195585,0.142966,-0.037345,64
1784729914075000,-1.991315,3.648276,8.303007,0.500787,0.398477,-0.056728,65
1784729914085000,-5.179078,2.602494,9.534905,0.736724,0.428547,0.164346,66
1784729914095000,-5.228006,2.765989,11.359509,0.703494,-0.190687,0.423589,67
1784729914105000,-3.947339,2.046896,12.434169,0.529445,-0.720312,0.607069,68
1784729914115000,-4.144804,-0.259181,11.799865,0.322342,-0.713072,0.653931,69
1784729914125000,-4.620348,-1.534103,11.404624,0.280657,-0.714193,0.578535,70
1784729914135000,-6.031357,-1.596183,11.861867,0.243960,-0.628117,0.421028,71
1784729914145000,-6.609869,-1.803326,12.314888,0.138682,-0.630190,0.205707,72
1784729914155000,-6.266236,-1.572503,12.600387,0.008112,-0.582893,-0.029122,73
1784729914165000,-5.708454,-1.421303,12.410854,-0.143694,-0.448698,-0.269262,74
1784729914175000,-5.158415,-1.314486,11.987628,-0.268540,-0.277346,-0.483900,75
1784729914185000,-4.798282,-0.204459,11.969849,-0.343096,-0.140444,-0.646333,76
1784729914195000,-4.723789,1.093343,12.054428,-0.498888,-0.068178,-0.751703,77
1784729914205000,-4.084889,1.703648,11.798226,-0.656546,-0.073398,-0.824871,78
1784729914215000,-3.449903,3.086877,11.918328,-0.805312,-0.025237,-0.863482,79
1784729914225000,-3.527958,4.837617,11.618988,-1.080800,-0.033788,-0.919326,80
1784729914236000,-2.129989,3.750253,10.229523,-1.191004,-0.026489,-1.016348,81
1784729914246000,0.247735,4.052088,10.131357,-1.197515,0.103524,-1.127495,82
1784729914256000,0.987910,3.736927,9.646980,-1.191489,0.353844,-0.992919,83
1784729914266000,0.471764,4.419739,10.020656,-1.254469,0.403957,-0.753362,84
1784729914276000,0.249063,4.473755,10.194962,-1.323971,0.286612,-0.510931,85
1784729914286000,0.525847,4.137986,10.165533,-1.379104,0.201469,-0.332024,86
1784729914296000,0.408869,3.634815,10.046630,-1.412586,0.203757,-0.205083,87
1784729914306000,0.237374,3.582829,10.116014,-1.391602,0.223537,-0.087696,88
1784729914316000,0.138139,3.889802,10.186512,-1.367964,0.280946,0.004653,89
1784729914326000,-0.084126,4.128469,9.991454,-1.365053,0.379246,0.066217,90
1784729914336000,-0.422999,4.428751,9.649215,-1.340138,0.484003,0.093825,91
1784729914346000,-0.876947,4.733916,9.289222,-1.302229,0.557913,0.079735,92
1784729914356000,-1.428966,5.327436,9.095422,-1.258020,0.579067,0.026318,93
1784729914366000,-1.612337,5.834267,8.921701,-1.233619,0.568849,-0.071575,94
1784729914376000,-1.649804,6.423242,8.927139,-1.237077,0.580602,-0.222420,95
1784729914386000,-2.044820,6.114360,8.365736,-1.302006,0.559456,-0.410384,96
1784729914396000,-2.448698,6.540058,8.171436,-1.298889,0.447747,-0.603937,97
1784729914406000,-2.564864,6.489662,7.685863,-1.332993,0.198374,-0.758928,98
1784729914416000,-1.864858,6.183291,7.049002,-1.332583,-0.060711,-0.862332,99
1784729914426000,-1.005111,5.837030,6.176375,-1.263422,-0.212575,-0.915321,100
1784729914436000,-0.343624,5.832069,5.489860,-1.134358,-0.268191,-0.910539,101
1784729914446000,-0.023869,6.135203,5.001016,-0.981653,-0.264567,-0.836406,102
1784729914456000,0.379844,6.841297,4.680037,-0.824161,-0.227490,-0.685442,103
1784729914466000,0.860253,7.662154,4.357234,-0.710964,-0.141291,-0.488994,104
1784729914476000,1.360719,8.069732,3.765038,-0.615323,-0.008931,-0.275693,105
1784729914486000,1.439743,8.293911,2.782802,-0.488670,0.129437,-0.061959,106
1784729914496000,1.062762,8.269438,1.717258,-0.293381,0.181922,0.129281,107
1784729914506000,0.611190,8.291203,1.192200,-0.024906,0.140463,0.260438,108
1784729914516000,0.221974,9.046699,1.759676,0.259489,0.071911,0.320576,109
1784729914526000,-0.527407,9.804406,2.613430,0.369386,-0.058496,0.370063,110
1784729914536000,0.273193,9.406520,2.764462,0.453856,-0.160337,0.400343,111
1784729914546000,0.026770,9.331477,2.968727,0.563266,-0.113694,0.420135,112
1784729914556000,-0.607464,10.247022,3.829412,0.624362,-0.054450,0.443863,113
1784729914566000,-1.044345,9.280592,3.818341,0.576607,0.030965,0.413686,114
1784729914576000,-9.380651,-5.297987,11.534769,0.850655,2.074072,1.452392,115
1784729914586000,-18.397640,1.095853,17.777819,2.112022,-0.044552,1.763986,116
1784729914596000,-4.724733,-3.416190,3.574681,1.500373,-0.024321,1.588969,117
1784729914606000,-3.928543,4.735777,4.419105,2.151357,0.007578,1.125005,118
1784729914616000,-5.884589,9.625607,10.965415,2.245734,0.228248,0.680571,119
1784729914626000,-4.747340,7.524938,10.652532,1.851392,-0.062268,0.583102,120
1784729914636000,-1.441367,6.043918,8.793759,1.868014,-0.081226,0.556673,121
1784729914646000,-0.535904,7.011042,9.926783,1.950334,0.012070,0.529907,122
1784729914656000,-0.389853,8.879704,11.090714,1.783371,0.130693,0.502691,123
1784729914666000,-0.626291,8.265085,9.841692,1.581460,0.285224,0.413176,124
1784729914676000,-0.918164,8.078996,9.865801,1.461453,0.424677,0.243299,125
1784729914686000,-0.746565,8.288456,10.559707,1.325217,0.531324,0.119704,126
1784729914696000,-3.331972,10.279772,11.426216,1.087238,0.436947,0.093994,127
1784729914706000,-5.662035,8.972204,8.913150,0.613407,0.338180,-0.135585,128
1784729914716000,-3.159863,6.470355,8.333532,0.614772,0.186116,-0.303195,129
1784729914726000,-1.058578,6.815760,9.093692,0.444260,0.308059,-0.331820,130
1784729914736000,-3.624706,5.165058,7.646926,0.441601,0.465974,-0.333699,131
1784729914746000,-4.520577,5.140079,7.189754,0.412551,0.271641,-0.359971,132
1784729914756000,-3.767409,4.594133,7.390295,0.419118,0.159967,-0.280994,133
1784729914766000,-3.442415,4.512041,7.363087,0.385463,0.083606,-0.214912,134
1784729914776000,-3.089818,4.632522,7.611107,0.433169,0.030807,-0.167630,135
1784729914786000,-2.534395,4.763050,8.004706,0.451325,0.008890,-0.113615,136
1784729914796000,-2.126474,5.803346,8.373922,0.444855,0.033022,-0.095980,137
1784729914806000,-2.156818,6.128037,8.209311,0.379609,0.103822,-0.099694,138
1784729914816000,-2.408310,5.777981,8.033517,0.355657,0.157486,-0.120005,139
1784729914826000,-2.632622,6.276270,8.032375,0.336927,0.209784,-0.136092,140
1784729914836000,-2.580517,6.027125,8.014565,0.275453,0.236450,-0.161394,141
1784729914846000,-2.639309,6.122309,7.895084,0.221039,0.267300,-0.177283,142
1784729914856000,-2.938567,5.743666,7.729650,0.190577,0.278143,-0.183640,143
1784729914866000,-2.981715,5.624082,7.735882,0.181124,0.274735,-0.177959,144
1784729914876000,-2.944844,5.685585,7.615500,0.151160,0.287744,-0.175578,145
1784729914886000,-3.133327,5.512821,7.485345,0.137193,0.273843,-0.162503,146
1784729914896000,-3.117856,5.805176,7.545003,0.116173,0.251225,-0.144614,147
1784729914906000,-3.292058,5.570148,7.415158,0.067827,0.222813,-0.122300,148
1784729914916000,-3.234487,5.546191,7.428978,0.049598,0.185869,-0.096709,149
1784729914926000,-3.276756,5.819364,7.465596,0.009797,0.139466,-0.069063,150
1784729914936000,-3.171156,5.694917,7.503504,-0.054204,0.104260,-0.036454,151
1784729914946000,-3.267164,5.738013,7.475668,-0.105610,0.065387,0.001858,152
1784729914956000,-3.122384,5.771805,7.569209,-0.156105,0.038823,0.029660,153
1784729914966000,-3.416356,4.879238,7.111451,-0.201884,0.028258,0.056329,154
1784729914976000,-3.492538,4.195302,7.213253,-0.090521,-0.028859,0.081948,155
1784729914986000,-3.044029,4.894682,7.417386,-0.015965,-0.045225,0.101472,156
1784729914996000,-3.028157,5.225496,7.505410,-0.000582,-0.049124,0.101253,157
1784729915006000,-3.182888,4.918810,7.409331,0.031293,-0.054581,0.106340,158
1784729915016000,-2.984755,5.259065,7.528512,0.068150,-0.075651,0.113138,159
1784729915026000,-2.960253,5.546376,7.545095,0.056910,-0.064926,0.114332,160
1784729915036000,-3.172951,5.229977,7.406794,0.060352,-0.078517,0.118319,161
1784729915046000,-2.867971,5.546828,7.653869,0.066142,-0.079358,0.122577,162
1784729915056000,-2.830312,5.522557,7.605817,0.051146,-0.061292,0.117239,163
1784729915066000,-2.864393,5.479290,7.563563,0.045607,-0.046173,0.114957,164
1784729915076000,-2.623980,5.455463,7.656388,0.037809,-0.054956,0.130516,165
1784729915086000,-2.755890,5.368345,7.448428,0.020920,-0.053950,0.144525,166
1784729915096000,-3.089384,5.065987,7.215922,0.026846,-0.064910,0.167496,167
1784729915106000,-3.392582,4.448486,7.143177,0.072292,-0.125693,0.224484,168
1784729915116000,-3.574083,4.530299,7.163862,0.144290,-0.200368,0.286017,169
1784729915126000,-3.529853,4.913538,7.217687,0.178787,-0.242415,0.353305,170
1784729915136000,-3.140463,4.827533,7.366520,0.227172,-0.322608,0.423050,171
1784729915146000,-2.715184,5.311947,7.649055,0.248752,-0.342700,0.472348,172
1784729915156000,-2.447522,5.608003,7.590940,0.260902,-0.329301,0.496865,173
1784729915166000,-2.638214,5.608660,7.650593,0.271344,-0.334765,0.497076,174
1784729915176000,-2.617440,5.886884,7.753300,0.301650,-0.321894,0.470526,175
1784729915186000,-2.161633,5.967975,7.837912,0.326381,-0.240328,0.408519,176
1784729915196000,-1.968121,5.743693,8.028428,0.353516,-0.167236,0.307281,177
1784729915206000,-1.910705,5.839288,8.017431,0.442036,-0.043267,0.217418,178
1784729915216000,-1.771359,5.640966,7.697135,0.528867,0.046422,0.111955,179
1784729915226000,-1.929047,5.325540,7.749285,0.687428,0.118975,0.030799,180
1784729915236000,-2.241146,5.124642,7.687747,0.897135,0.191532,0.005096,181
1784729915246000,-2.148108,4.927097,7.492243,1.171668,0.345934,0.017452,182
1784729915257000,-2.315095,4.540036,7.573731,1.486336,0.508461,0.066404,183
1784729915267000,-2.877298,4.848358,7.745414,1.855429,0.610607,0.125620,184
1784729915277000,-3.519986,5.315586,7.200109,2.154576,0.578405,0.171411,185
1784729915287000,-2.559370,5.698307,7.438696,2.412204,0.404971,0.159316,186
1784729915297000,-3.175419,6.068857,6.736137,2.680061,0.341049,0.169190,187
1784729915307000,-2.121968,4.794072,7.684087,3.123404,0.234602,0.159488,188
1784729915317000,-2.399696,5.435651,7.606031,3.584822,0.171536,0.123526,189
1784729915327000,-2.149909,5.179416,8.092360,4.040546,0.178678,0.091440,190
1784729915337000,-1.812852,6.038421,8.554632,4.488589,0.278298,0.065706,191
1784729915347000,-0.464210,5.631144,8.904532,4.967362,0.530566,0.020619,192
1784729915357000,-3.192220,7.001575,9.142097,5.756117,0.903956,0.088518,193
1784729915367000,-1.013944,5.820180,10.864042,5.847845,1.028174,0.881281,194
1784729915377000,-1.329710,10.237226,10.417876,6.491784,1.876561,2.149039,195
1784729915387000,-0.879693,11.574623,9.135788,7.081932,1.724749,2.091044,196
1784729915397000,-5.420529,14.899606,7.325594,7.505501,1.194253,0.862908,197
1784729915407000,-7.491852,14.963110,7.780339,7.690201,1.087644,1.126882,198
1784729915417000,-7.110940,16.192513,9.424198,7.538711,0.615889,1.375863,199
1784729915427000,-4.519701,16.300812,10.739290,7.306798,0.701011,1.351261,200
1784729915437000,-2.531913,17.054949,13.494951,6.728222,1.862135,1.156281,201
1784729915447000,-3.504133,17.835270,14.900736,5.279995,2.364575,1.195645,202
1784729915457000,-5.288687,11.177436,8.690798,2.847045,2.202437,1.304838,203
1784729915467000,-15.910923,-1.297927,3.990564,1.296676,1.966226,1.296940,204
1784729915477000,-19.238508,40.244144,47.409988,4.274678,0.512911,0.854683,205
1784729915487000,-12.775414,-0.346536,16.678972,-5.285639,-3.400813,1.063953,206
1784729915497000,-5.367112,2.961055,9.386285,-2.106209,-2.794810,1.935971,207
1784729915507000,0.219221,-4.874036,7.209862,-2.761703,-2.849442,2.227564,208
1784729915517000,-1.616354,-0.132630,10.368105,-2.693830,-1.956307,2.311915,209
1784729915527000,-4.112672,1.465343,11.126687,-3.046195,-1.241699,2.133266,210
1784729915537000,-6.803804,2.954700,11.238646,-3.652985,-1.007264,1.901879,211
1784729915547000,-8.471359,3.452057,10.633901,-4.283484,-1.212910,1.719046,212
1784729915557000,-8.045662,3.970626,10.175544,-4.784873,-1.552285,1.583911,213
1784729915567000,-6.404694,6.094245,10.296769,-5.289873,-1.657462,1.389351,214
1784729915577000,-3.918383,5.900699,8.973129,-5.790514,-1.488753,1.091654,215
1784729915587000,-3.397050,5.355139,7.461109,-6.036211,-1.022289,0.829826,216
1784729915597000,-3.666809,5.290921,6.169992,-6.030399,-0.379961,0.469325,217
1784729915607000,-4.441634,5.864481,5.764038,-5.933279,-0.129192,0.199336,218
1784729915617000,-4.827897,6.841881,5.775481,-5.775044,0.006689,-0.097137,219
1784729915627000,-5.101971,8.353323,6.287902,-5.637538,0.078857,-0.431525,220
1784729915637000,-4.986376,9.226466,6.642860,-5.533165,0.116929,-0.797145,221
1784729915647000,-4.197338,9.538026,6.946204,-5.389423,0.184835,-1.132865,222
1784729915657000,-3.568649,9.975328,7.427316,-5.208325,0.316609,-1.427408,223
1784729915667000,-3.049944,10.274097,7.929954,-5.029629,0.445487,-1.632371,224
1784729915677000,-2.311864,10.784838,8.734083,-4.837973,0.554326,-1.730534,225
1784729915687000,-1.682467,10.868377,9.308721,-4.672125,0.627985,-1.710016,226
1784729915697000,-1.144697,11.188373,10.188440,-4.499069,0.733941,-1.630474,227
1784729915707000,-0.401268,11.959897,11.396628,-4.349380,0.910494,-1.550286,228
1784729915717000,0.665083,12.653186,12.410366,-4.220482,1.181437,-1.476012,229
1784729915727000,-0.506177,14.265621,12.732232,-4.133987,1.407584,-1.317019,230
1784729915737000,-2.249232,12.933128,12.787677,-4.106353,1.322276,-1.190117,231
1784729915747000,-1.897776,14.315838,13.584959,-3.923924,1.240430,-1.128306,232
1784729915757000,-1.747938,17.399408,14.543502,-3.842473,1.391570,-1.216469,233
1784729915767000,-2.009176,21.092062,14.709132,-3.973418,1.702603,-1.449192,234
1784729915777000,-3.038350,22.460978,12.622941,-4.280544,1.926168,-1.767285,235
1784729915787000,-1.873473,18.979778,7.738135,-4.458785,2.025442,-2.053748,236
1784729915797000,-1.674520,19.736900,3.639683,-4.208049,2.087046,-2.347216,237
1784729915807000,-0.498696,17.469984,-2.415794,-3.834049,1.985134,-2.488981,238
1784729915817000,0.746299,19.836924,-6.845279,-2.935629,1.756855,-2.493209,239
1784729915827000,3.918732,24.022612,-10.791512,-2.285092,1.658361,-2.195665,240
1784729915837000,8.016113,27.301285,-15.697596,-1.647644,1.917476,-1.960536,241
1784729915847000,10.437367,23.145615,-18.384914,-0.933792,2.440921,-1.541987,242
1784729915857000,6.247380,18.962212,-17.761515,0.262548,2.395536,-0.806372,243
1784729915867000,1.689057,17.267447,-13.139260,1.356283,1.487044,0.179447,244
1784729915877000,0.040361,18.149641,-5.710264,1.945495,0.561001,0.872488,245
1784729915887000,-2.225389,18.732519,0.232982,1.967788,-0.121301,1.132690,246
1784729915897000,-13.141674,2.131521,16.219810,2.214377,-1.953118,1.975003,247
1784729915907000,-19.226229,-6.594055,17.360241,1.512535,-1.900983,1.772814,248
1784729915917000,-6.607298,-3.338434,1.499343,1.928262,-3.669387,1.976007,249
1784729915927000,7.810164,0.590428,5.541272,3.608395,-2.920787,1.727772,250
1784729915937000,7.596013,11.285904,15.719645,4.063185,-1.667988,1.007143,251
1784729915947000,9.555731,13.563874,15.286299,3.428856,-0.816401,0.905977,252
1784729915957000,4.087774,10.314151,10.403934,3.136300,-0.778583,1.694242,253
1784729915967000,0.164390,11.616529,12.663419,3.096140,-0.627160,1.777355,254
1784729915977000,-4.194288,13.240067,11.437608,2.841438,-0.341206,1.240214,255
1784729915987000,-0.172045,10.122830,10.003311,2.495217,-0.357352,0.889747,0
1784729915997000,3.773378,9.322714,10.238664,2.325850,-0.152465,0.770135,1
1784729916007000,2.496840,9.506804,11.093729,2.083198,0.080594,0.969307,2
1784729916017000,-10.607171,15.414963,13.151995,1.530133,-0.005495,1.154817,3
1784729916027000,-13.879953,9.253987,4.591086,0.047489,-1.009699,0.479419,4
1784729916037000,2.806353,8.756499,11.430265,0.572586,-1.123447,0.619904,5
1784729916047000,-1.174971,6.573866,8.609610,-0.451219,-0.440985,0.762726,6
1784729916057000,-3.179275,8.989282,8.438440,-0.139404,-0.493470,0.617517,7
1784729916067000,-0.605204,6.676128,8.233961,-0.397256,-0.411092,0.533571,8
1784729916077000,-1.734721,6.529680,8.244061,-0.315055,-0.332645,0.467704,9
1784729916087000,-0.974509,6.154840,8.223390,-0.246025,-0.340214,0.379731,10
1784729916097000,-0.908091,5.719038,8.221187,-0.146219,-0.264141,0.257844,11
1784729916107000,-1.042427,5.470301,8.219975,-0.069263,-0.223042,0.184240,12
1784729916117000,-1.536317,5.355871,8.155199,-0.004976,-0.186202,0.141521,13
1784729916127000,-1.520005,5.220592,7.941031,0.039782,-0.156393,0.142402,14
1784729916137000,-1.730993,5.297321,7.899998,0.027033,-0.153116,0.143662,15
1784729916147000,-1.797939,5.436222,7.890177,0.033375,-0.139377,0.163352,16
1784729916157000,-1.782584,5.479710,7.966104,0.028815,-0.135433,0.188856,17
1784729916167000,-1.452401,5.388220,7.972354,0.024163,-0.135815,0.206024,18
1784729916177000,-1.299998,5.631657,7.887380,0.018976,-0.140275,0.210572,19
1784729916187000,-1.342327,5.502872,7.960568,0.000551,-0.123593,0.211591,20
1784729916197000,-1.236874,5.555401,7.968434,0.007583,-0.102192,0.189839,21
1784729916207000,-1.217149,5.598693,8.010862,0.010152,-0.098431,0.179330,22
1784729916217000,-1.241665,5.550622,7.968530,0.002038,-0.082539,0.173329,23
1784729916227000,-1.126785,5.430813,7.982397,-0.005192,-0.074871,0.152299,24
1784729916237000,-1.092572,5.435862,8.039281,-0.012422,-0.098580,0.092203,25
1784729916247000,-1.255910,5.392795,7.993820,0.006463,-0.048615,0.100222,26
1784729916257000,-1.090346,4.975354,7.880371,0.010853,-0.002514,0.123023,27
1784729916267000,-1.130909,4.986123,8.081465,0.048782,0.045979,0.115394,28
1784729916278000,-1.597137,5.038643,7.914713,0.078229,0.043029,0.142673,29
1784729916288000,-1.495856,5.158445,7.965111,0.112522,0.036399,0.186929,30
1784729916298000,-1.319060,5.598231,7.897428,0.104600,0.000016,0.209886,31
1784729916308000,-0.110612,6.159739,7.649012,0.113962,-0.064103,0.144584,32
1784729916318000,-2.801572,5.261979,7.249125,0.111227,0.033586,0.161486,33
1784729916328000,-1.498433,5.386964,7.734014,0.117361,0.009504,0.218568,34
1784729916338000,-1.057691,5.620880,7.745948,0.132461,-0.011936,0.208106,35
1784729916348000,-1.006935,5.368499,8.005314,0.138386,-0.009704,0.186218,36
1784729916358000,-1.069424,5.430686,7.976922,0.175694,0.009933,0.179995,37
1784729916368000,-1.264253,5.326373,8.099558,0.255520,0.041895,0.182685,38
1784729916378000,-1.652920,5.120824,8.038987,0.317919,0.058042,0.204774,39
1784729916388000,-1.609518,5.154393,8.062090,0.415874,0.036642,0.251972,40
1784729916398000,-1.427786,5.168382,8.050214,0.505437,0.052716,0.288617,41
1784729916408000,-0.994912,5.336089,8.206105,0.650425,0.097800,0.300309,42
1784729916418000,-0.541517,5.282120,8.110222,0.837240,0.216230,0.288208,43
1784729916428000,-0.653539,4.857732,8.382461,1.126619,0.215762,0.236541,44
1784729916438000,-0.320460,4.757971,8.622871,1.515684,0.274681,0.160301,45
1784729916448000,-0.630422,4.775984,8.325476,1.985223,0.399937,0.129232,46
1784729916458000,-0.587941,4.431132,8.313302,2.490245,0.501560,0.112861,47
1784729916468000,-1.488179,4.358500,7.894779,3.006577,0.509845,0.236833,48
1784729916478000,-0.783218,5.318042,6.755870,3.467267,0.537699,0.318402,49
1784729916488000,-2.121179,3.703468,7.859784,3.908613,0.427552,0.487995,50
1784729916498000,-1.377853,4.635951,7.886504,4.464343,0.099200,0.627910,51
1784729916508000,-2.638105,4.795275,7.742917,4.739197,-0.059855,0.744680,52
1784729916518000,-2.908688,5.392685,7.473989,5.059040,-0.451383,0.900630,53
1784729916528000,-2.894744,5.480760,7.817167,5.255127,-0.826192,1.050432,54
1784729916538000,-2.976063,6.528336,8.483748,5.782427,-1.035338,1.209097,55
1784729916548000,-3.244424,15.478557,7.920572,5.564753,-0.600611,2.268688,56
1784729916558000,-0.590790,17.416603,13.688326,6.467462,-0.200066,2.653481,57
1784729916568000,-4.337178,3.062653,13.310215,7.237016,-0.922456,2.231955,58
1784729916578000,-2.919857,16.786310,11.571358,7.570583,-1.134697,2.325050,59
1784729916588000,-4.316788,15.047209,11.792986,8.005056,-0.927476,2.435615,60
1784729916598000,-3.564789,14.814860,10.710545,8.321465,-1.058857,2.261254,61
1784729916608000,-2.721931,18.890892,9.564869,7.873154,-0.891724,2.150605,62
1784729916618000,-1.159090,12.595616,9.269827,6.855062,-0.450379,1.993358,63
1784729916628000,-3.660625,10.095584,5.788573,5.458716,-0.118401,1.783949,64
1784729916638000,-8.940250,12.246137,12.052557,4.427659,-0.426092,1.697731,65
1784729916648000,-0.808518,29.982153,33.795685,5.789867,-1.287624,1.408757,66
1784729916658000,-13.409092,40.118004,26.626486,-3.107876,-0.812867,0.620731,67
1784729916668000,-8.907228,2.716540,21.090096,-2.336547,-0.379737,0.285463,68
1784729916678000,-7.573519,-4.159475,17.046673,-4.614711,-0.466926,-0.445869,69
1784729916688000,-5.991940,-7.711582,9.882917,-3.784724,-0.121675,-0.879564,70
1784729916698000,-5.404955,-2.615724,10.380918,-3.458698,0.231493,-1.216880,71
1784729916708000,-4.361852,1.519938,12.252175,-3.586286,0.362722,-1.437814,72
1784729916718000,-3.092739,3.878820,13.236176,-4.176873,0.437508,-1.592156,73
1784729916728000,-2.050751,5.154031,12.998577,-4.916657,0.520692,-1.684950,74
1784729916738000,-1.223749,6.147938,12.049046,-5.576194,0.592326,-1.703081,75
1784729916748000,-0.495780,6.078271,10.941742,-6.122124,0.652521,-1.645945,76
1784729916758000,0.124010,6.646033,9.921590,-6.494408,0.725572,-1.540933,77
1784729916768000,0.733276,6.806667,8.866501,-6.738146,0.829469,-1.423542,78
1784729916778000,0.821215,7.515966,8.167082,-6.852353,0.994450,-1.338629,79
1784729916788000,0.369295,7.695477,7.597800,-6.834451,1.121061,-1.328469,80
1784729916798000,0.217073,8.308619,7.609224,-6.692831,1.169925,-1.354708,81
1784729916808000,0.207293,9.757894,8.214478,-6.499050,1.173607,-1.375103,82
1784729916818000,-0.517198,11.535177,9.040899,-6.379061,1.162386,-1.408928,83
1784729916828000,-1.104690,12.079545,9.464301,-6.323420,0.814024,-1.462498,84
1784729916838000,-0.351422,13.566281,11.006067,-6.205092,1.032363,-1.502286,85
1784729916848000,-0.409051,13.424897,11.390123,-6.099019,1.038756,-1.543088,86
1784729916858000,-0.637484,13.330165,11.503537,-5.967017,0.966001,-1.546906,87
1784729916868000,-0.251091,13.266740,11.408544,-5.621276,1.080119,-1.496651,88
1784729916878000,0.309624,15.253556,12.423164,-5.195107,1.286389,-1.461951,89
1784729916888000,-0.391847,13.545299,12.378070,-4.796882,1.460742,-1.413184,90
1784729916898000,-1.155147,17.491655,14.095979,-4.369067,1.631161,-1.461367,91
1784729916908000,-2.142552,19.857328,12.187890,-4.021205,1.771583,-1.613171,92
1784729916918000,-3.776166,23.462858,10.913535,-3.625479,1.573578,-1.917372,93
1784729916928000,-3.754415,27.398134,9.176888,-3.476045,1.196092,-2.352640,94
1784729916938000,-2.414824,30.844378,6.859396,-3.569614,0.751127,-2.977488,95
1784729916948000,1.071724,32.730309,1.852104,-3.857366,0.436559,-3.719159,96
1784729916958000,3.186083,28.175066,-8.167715,-4.283302,0.302784,-4.141142,97
1784729916968000,2.650697,28.080980,-16.589243,-3.517158,-0.153162,-3.937413,98
1784729916978000,9.268000,27.007545,-21.611639,-2.597658,-0.947234,-3.431677,99
1784729916988000,16.192530,24.933752,-22.214933,-1.471449,-0.264332,-2.193399,100
1784729916998000,15.200043,20.711483,-17.301069,-0.023802,1.520506,-1.034016,101
1784729917008000,7.104345,21.289038,-10.651357,0.860434,1.694673,-0.024949,102
1784729917018000,1.126327,21.290346,-4.524643,1.109857,1.067911,0.771828,103
1784729917028000,3.946741,5.054675,-4.657444,1.249259,-0.214724,2.247358,104
1784729917038000,-17.280106,-10.768706,6.856914,1.045921,2.994430,3.417306,105
1784729917048000,-24.892504,3.191633,15.594794,3.156920,-2.040297,4.448027,106
1784729917058000,-0.920031,-4.191805,5.579495,2.338337,-2.864229,4.492515,107
1784729917068000,-4.849284,11.089427,5.929105,3.437782,-1.067966,3.274034,108
1784729917078000,-10.799089,11.417258,9.668610,4.054590,-0.001117,1.186884,109
1784729917088000,-4.288667,11.829756,10.919327,4.044116,-1.334569,0.902342,110
1784729917098000,4.442358,14.989331,12.656856,3.737848,-1.147146,1.337723,111
1784729917108000,1.598101,10.472694,11.460307,3.065725,-0.683922,1.504966,112
1784729917118000,-2.376845,12.325649,10.280605,2.797472,-0.459509,1.182694,113
1784729917128000,-3.106041,11.860538,12.500625,2.593441,-0.428072,0.743556,114
1784729917138000,-2.772249,18.773872,15.161679,1.904416,-0.807893,0.504494,115
1784729917148000,-2.900909,8.669051,7.763812,0.745562,-0.582389,0.130219,116
1784729917158000,-0.844675,9.062698,10.287307,0.927022,-0.340584,0.039343,117
1784729917168000,0.042100,5.864303,8.800998,0.643070,-0.264082,-0.076733,118
1784729917178000,-3.610242,7.035505,8.234280,0.653122,-0.163655,-0.101563,119
1784729917188000,-2.638649,6.163040,8.329578,0.571773,-0.287245,-0.048215,120
1784729917199000,-1.913872,7.361622,7.991312,0.413919,-0.221123,0.021793,121
1784729917208000,-1.302212,7.041737,8.335165,0.324757,-0.104757,0.027896,122
1784729917218000,-1.834316,6.346275,7.950448,0.224229,-0.032558,0.016146,123
1784729917228000,-1.050008,6.452116,8.279338,0.210685,0.031477,-0.038969,124
1784729917238000,-1.053797,6.005419,8.020051,0.240933,0.065128,-0.112586,125
1784729917248000,-1.900818,5.604953,8.066913,0.292096,0.116575,-0.128068,126
1784729917258000,-1.672106,6.087387,7.936150,0.320654,0.126391,-0.128475,127
1784729917268000,-1.704157,5.971101,7.679419,0.302042,0.161251,-0.147274,128
1784729917278000,-2.047968,5.924180,7.746083,0.295100,0.162365,-0.146678,129
1784729917289000,-2.240225,5.804512,7.692013,0.263744,0.168217,-0.121101,130
1784729917298000,-2.014885,5.876087,7.717385,0.237096,0.144119,-0.094714,131
1784729917309000,-2.250748,5.952433,7.600206,0.203777,0.125912,-0.067431,132
1784729917319000,-2.179964,6.066700,7.507671,0.159289,0.102693,-0.034033,133
1784729917329000,-2.248613,5.817258,7.400545,0.093313,0.071137,0.000416,134
1784729917339000,-2.184757,5.908802,7.523291,0.056541,0.052396,0.037872,135
1784729917349000,-2.026897,6.119039,7.495846,0.011408,0.033006,0.060223,136
1784729917359000,-2.016860,6.061812,7.539172,-0.030959,0.030153,0.072332,137
1784729917369000,-2.012434,6.009008,7.515638,-0.079600,0.028738,0.079147,138
1784729917379000,-2.012310,5.913366,7.535492,-0.125807,0.032106,0.085729,139
1784729917389000,-1.945477,5.779200,7.535721,-0.142946,0.024750,0.087386,140
1784729917399000,-1.905059,5.277676,7.758922,-0.114472,0.028440,0.101106,141
1784729917409000,-1.991912,5.521535,7.676855,-0.067569,0.020003,0.127531,142
1784729917419000,-1.820143,5.654987,7.621168,-0.035864,0.018210,0.152737,143
1784729917429000,-2.115187,5.998599,7.335397,-0.055578,0.001618,0.176920,144
1784729917439000,-1.816545,5.955894,7.494554,-0.153855,-0.025555,0.197076,145
1784729917449000,-1.830377,5.343687,7.599820,-0.177292,-0.018807,0.233474,146
1784729917459000,-2.705463,4.802643,7.327974,-0.186660,-0.058400,0.351367,147
1784729917469000,-2.306777,4.836121,7.442319,-0.138450,-0.120852,0.484582,148
1784729917479000,-2.711897,4.947614,7.565837,-0.126035,-0.164099,0.606045,149
1784729917489000,-2.159290,5.471870,7.306576,-0.110481,-0.205776,0.651822,150
1784729917499000,-1.828184,5.593485,7.750756,-0.078527,-0.196025,0.670768,151
1784729917509000,-1.671234,5.535359,7.677625,-0.038163,-0.169580,0.666054,152
1784729917519000,-1.693885,5.358932,7.798726,0.033174,-0.204079,0.658091,153
1784729917529000,-1.945526,5.369832,7.959383,0.097951,-0.199200,0.633785,154
1784729917539000,-1.747893,5.336639,8.076693,0.228040,-0.228572,0.579483,155
1784729917549000,-1.293168,5.656491,8.049563,0.401939,-0.184143,0.540120,156
1784729917559000,-0.822801,5.307007,8.194680,0.593310,-0.073301,0.491535,157
1784729917569000,-1.757929,4.690485,8.105723,0.916887,0.033054,0.495036,158
1784729917579000,-0.984084,5.145240,8.326911,1.361101,-0.068009,0.512551,159
1784729917589000,-1.641233,4.853802,8.236825,1.822388,0.054130,0.566736,160
1784729917599000,-0.842116,4.957664,8.216742,2.313323,0.012843,0.601537,161
1784729917609000,-0.176656,4.801370,7.865828,2.989397,0.151701,0.588884,162
1784729917619000,-0.564297,3.507003,9.156379,3.483025,0.275046,0.473346,163
1784729917629000,-1.217547,3.385260,8.591887,4.728296,0.293757,0.497648,164
1784729917639000,-1.454400,3.611650,8.765024,5.490031,0.082733,0.574899,165
1784729917649000,-2.412286,3.349303,9.505004,6.144957,-0.257053,0.670189,166
1784729917659000,-3.339883,4.391737,9.852224,6.741805,-0.648931,0.859923,167
1784729917669000,-3.313842,13.091125,9.899025,7.311861,-0.438644,1.520798,168
1784729917679000,-3.706018,14.684120,15.539274,7.209095,1.200548,4.713034,169
1784729917689000,-2.100576,4.755608,13.652116,8.269420,-0.448991,2.185642,170
1784729917699000,-4.350874,19.063953,15.188188,8.679171,-0.085902,2.231271,171
1784729917709000,-4.232485,15.394588,13.151054,9.101139,0.019703,2.350461,172
1784729917719000,-4.707241,16.023203,10.695945,9.255732,-0.273372,2.014588,173
1784729917729000,-2.967796,19.090523,10.942435,8.176091,-0.027935,1.837363,174
1784729917739000,-3.661998,15.619423,12.435192,7.122000,0.376994,2.191089,175
1784729917749000,-3.764920,8.425116,11.823365,4.638907,0.087375,1.858922,176
1784729917759000,-2.808319,7.122009,15.381618,3.698557,-0.194962,1.635242,177
1784729917769000,-17.710260,48.482655,57.098866,3.611442,0.568305,1.380029,178
1784729917779000,-8.808394,-1.830938,30.675859,-3.841722,-1.880788,0.843496,179
1784729917789000,-9.570220,6.570992,20.103027,-3.700184,-1.347281,0.427996,180
1784729917799000,-6.252006,-5.039270,9.091257,-3.436317,-1.000083,-0.083423,181
1784729917809000,-6.322106,-3.634260,9.468234,-3.085784,-0.778753,-0.469856,182
1784729917819000,-5.919575,-0.941753,10.775548,-3.124479,-0.715449,-0.705130,183
1784729917829000,-4.933119,2.744576,12.756105,-3.583764,-0.753846,-0.836275,184
1784729917839000,-3.727000,5.727408,13.998829,-4.352865,-0.731970,-0.903957,185
1784729917849000,-2.429880,7.201665,13.474667,-5.237388,-0.629584,-0.910327,186
1784729917859000,-1.513424,6.936800,11.764529,-6.006477,-0.424421,-0.844443,187
1784729917869000,-1.263461,7.311043,10.272557,-6.462261,-0.171134,-0.723381,188
1784729917879000,-1.675389,8.840598,9.701860,-6.879313,0.020339,-0.620122,189
1784729917889000,-2.019572,9.179404,8.542311,-7.240843,0.117369,-0.554970,190
1784729917899000,-2.089671,8.855859,7.169550,-7.387912,0.203005,-0.540153,191
1784729917909000,-2.109338,8.356343,6.022119,-7.297369,0.304335,-0.578762,192
1784729917919000,-2.473655,9.313674,5.875770,-7.010124,0.408544,-0.680813,193
1784729917929000,-3.097521,11.459279,6.674215,-6.721810,0.470441,-0.883357,194
1784729917939000,-3.402412,12.928918,7.407134,-6.499078,0.447214,-1.094067,195
1784729917949000,-3.030050,14.350666,8.342427,-6.324728,0.499628,-1.303319,196
1784729917959000,-3.195379,13.474133,8.222235,-6.156908,0.561921,-1.450145,197
1784729917969000,-2.635347,13.219625,8.255623,-5.790664,0.644151,-1.500230,198
1784729917979000,-2.046329,12.360137,7.987553,-5.296480,0.764332,-1.484274,199
1784729917989000,-0.537330,12.891049,9.207408,-4.668510,1.017276,-1.449508,200
1784729917999000,-1.038164,16.601688,11.659799,-4.174218,1.453796,-1.381366,201
1784729918009000,-2.061159,16.261116,12.945894,-4.083703,1.637367,-1.394367,202
1784729918019000,-1.495767,16.157820,12.624456,-3.789702,1.608543,-1.379010,203
1784729918029000,0.145947,21.598919,14.392284,-3.582571,2.007053,-1.522319,204
1784729918039000,2.169509,24.762718,13.999066,-3.661585,2.758048,-1.873432,205
1784729918049000,1.451276,27.076303,11.419157,-4.035879,3.387751,-2.318703,206
1784729918059000,1.026866,24.615118,5.241310,-4.290685,3.652965,-2.771685,207
1784729918069000,-0.139855,24.596945,-0.072065,-4.101690,3.339445,-3.082987,208
1784729918079000,0.815275,23.953922,-5.181825,-3.781281,2.461398,-3.165714,209
1784729918089000,4.151049,23.121197,-10.104053,-3.165401,1.552769,-3.145577,210
1784729918099000,7.232918,25.931307,-13.493785,-2.590257,0.231590,-3.343940,211
1784729918109000,10.266688,27.003262,-18.651707,-1.986648,-0.109151,-2.815023,212
1784729918119000,13.433959,22.296545,-18.629793,-0.986208,0.427058,-1.095453,213
1784729918129000,8.784417,20.349884,-12.848146,0.727213,0.558657,0.467627,214
1784729918139000,5.928218,22.272255,-6.415963,1.274208,0.445096,1.242433,215
1784729918149000,2.789893,22.007774,-2.438481,1.268538,0.051886,1.675072,216
1784729918159000,-6.074944,2.540612,-0.941898,0.278237,-0.091103,2.128222,217
1784729918169000,-26.735985,-7.818740,33.229221,1.916298,1.091401,2.785563,218
1784729918179000,-25.195576,-11.769057,13.922835,1.979914,-3.322985,2.438690,219
1784729918189000,6.302908,-6.919028,-5.615657,2.912115,-3.460907,2.120393,220
1784729918199000,-0.788373,9.886046,8.569627,4.981885,-1.095175,1.415183,221
1784729918209000,3.503777,18.884418,17.994404,4.129190,-0.784957,0.590962,222
1784729918219000,6.935572,10.857070,10.752109,3.739421,-0.874825,1.149555,223
1784729918229000,2.920828,11.713203,11.095328,3.739780,-0.041725,1.546604,224
1784729918239000,-0.505038,12.950759,12.188157,3.407916,-0.157149,1.271071,225
1784729918249000,-0.794803,11.982312,10.149349,3.178658,-0.158071,1.042170,226
1784729918259000,-2.435575,14.913584,14.150689,2.708233,-0.210057,0.974651,227
1784729918269000,-9.658134,17.780378,12.639480,1.735648,-0.568339,0.714954,228
1784729918280000,-5.386404,7.484650,5.825066,1.059107,-1.213130,0.342037,229
1784729918289000,0.496814,10.522161,11.411202,0.982243,-1.044348,0.455743,230
1784729918299000,-1.023975,6.429095,8.451215,0.426000,-0.801897,0.449631,231
1784729918309000,-2.443702,7.994281,8.809919,0.417562,-0.830026,0.439781,232
1784729918319000,-2.196042,7.172946,8.411915,0.101988,-0.866149,0.455771,233
1784729918330000,-1.210787,7.792561,9.068846,-0.126867,-0.771495,0.469402,234
1784729918340000,-1.646837,6.204942,8.417529,-0.332424,-0.615272,0.492328,235
1784729918350000,-0.591127,6.525017,8.612442,-0.382548,-0.534930,0.458065,236
1784729918360000,-0.691403,5.915450,8.307812,-0.338865,-0.385941,0.368626,237
1784729918370000,-1.105707,5.766593,8.103767,-0.288897,-0.329320,0.290040,238
1784729918380000,-0.841716,5.699504,8.172750,-0.209691,-0.255709,0.225477,239
1784729918390000,-1.145327,5.536384,8.020028,-0.145143,-0.218207,0.170975,240
1784729918400000,-1.259980,5.445758,8.046019,-0.114120,-0.187152,0.133747,241
1784729918410000,-1.418301,5.498485,8.009309,-0.096056,-0.164724,0.129279,242
1784729918420000,-1.519940,5.325888,7.935434,-0.106710,-0.152974,0.131076,243
1784729918430000,-1.490924,5.182428,7.974422,-0.096115,-0.136223,0.134300,244
1784729918440000,-1.285213,5.392580,7.946395,-0.080164,-0.106852,0.120590,245
1784729918450000,-1.130723,5.144108,8.080235,-0.068740,-0.072997,0.103931,246
1784729918460000,-1.255799,5.134459,8.029272,-0.044699,-0.048666,0.102280,247
1784729918470000,-1.193370,5.273212,8.032213,-0.030844,-0.033685,0.098411,248
1784729918480000,-1.203909,5.306288,7.950855,-0.020485,-0.005703,0.091592,249
1784729918490000,-1.141463,5.358921,7.964021,-0.005848,0.044000,0.067336,250
1784729918500000,-0.682130,5.477717,7.943176,0.034227,0.112017,0.006114,251
1784729918510000,-1.227518,5.272978,7.980070,0.077006,0.229156,-0.047707,252
1784729918520000,-0.818756,5.383225,8.127144,0.146682,0.260958,-0.077833,253
1784729918530000,-1.198576,5.368730,7.988531,0.165780,0.282812,-0.081798,254
1784729918540000,-1.348656,5.485203,8.223585,0.117259,0.218933,-0.016568,255
1784729918550000,-1.789155,5.373649,7.833218,-0.018884,0.128864,0.077499,0
1784729918560000,-1.496939,5.095756,7.884382,-0.036453,0.041281,0.140751,1
1784729918570000,-1.839497,4.367785,7.736521,-0.086145,0.050393,0.206817,2
1784729918580000,-2.207480,4.564826,7.758580,-0.022644,0.034294,0.299441,3
1784729918590000,-2.360530,4.426366,7.780630,-0.004662,0.018295,0.409192,4
1784729918600000,-1.993357,4.834016,8.016687,0.053855,-0.030395,0.466427,5
1784729918610000,-1.391278,5.107471,8.298710,0.109324,-0.089049,0.455302,6
1784729918620000,-0.854960,5.484707,8.284478,0.193579,-0.074998,0.396669,7
1784729918630000,-1.368791,5.245545,8.168352,0.255195,-0.082195,0.360309,8
1784729918640000,-1.156746,5.360685,8.274777,0.402664,-0.065398,0.296583,9
1784729918650000,-0.992863,5.413566,8.363159,0.526110,-0.070618,0.269055,10
1784729918660000,-1.035228,5.504870,8.410748,0.663038,-0.028605,0.242377,11
1784729918670000,-1.366092,5.069715,8.403817,0.851958,-0.002640,0.262616,12
1784729918680000,-0.965209,4.719231,8.349102,1.129185,0.002570,0.330077,13
1784729918690000,-2.408426,4.607782,8.529984,1.633988,-0.067830,0.452833,14
1784729918700000,-0.217047,4.689963,8.478796,2.068945,-0.085404,0.504081,15
1784729918710000,-0.884209,4.072969,8.386582,2.727933,-0.067473,0.569244,16
1784729918720000,0.010306,3.734161,8.000854,3.462274,0.127117,0.605355,17
1784729918730000,0.364418,4.516113,7.531764,4.225227,0.307122,0.506756,18
1784729918740000,-0.994244,2.084335,9.750822,4.708383,0.197091,0.401219,19
1784729918750000,-0.765675,3.799529,8.325148,5.534631,0.012566,0.420587,20
1784729918760000,-1.535043,3.353724,8.849238,5.900023,-0.372600,0.407161,21
1784729918770000,-2.051662,4.354756,8.766520,6.431423,-0.619124,0.433936,22
1784729918780000,-4.294431,6.757801,10.590863,7.040800,-0.798813,0.639215,23
1784729918790000,-3.546413,17.867725,9.563732,6.767743,0.348180,2.595560,24
1784729918800000,-0.240658,10.104076,16.043955,7.749713,-0.535827,1.999737,25
1784729918810000,-3.209107,19.676409,10.333986,9.152931,-0.331513,1.951618,26
1784729918820000,-4.784302,18.033981,12.377534,9.458362,-0.558874,2.035111,27
1784729918830000,-6.495058,16.946604,13.467553,9.644297,-0.869722,2.177638,28
1784729918840000,-3.216648,17.076033,11.921528,9.413001,-1.747103,1.593029,29
1784729918850000,-2.618054,16.761061,13.139915,7.609556,-0.975764,2.145389,30
1784729918860000,-2.100922,13.135715,9.678460,5.915904,-0.723338,1.763821,31
1784729918870000,-6.752633,7.697471,11.788911,4.518385,-0.119616,1.424254,32
1784729918880000,3.506325,31.141003,34.288467,6.561433,-0.444672,1.631996,33
1784729918890000,-14.368041,35.203781,28.530264,-2.509054,-0.465874,1.743398,34
1784729918900000,-8.707788,6.161836,22.537380,-2.042648,-0.586892,2.119293,35
1784729918910000,-7.124757,-2.321647,17.925245,-4.539412,-0.910123,1.752733,36
1784729918920000,-7.511837,-5.959939,11.020241,-4.256518,-0.341625,1.424611,37
1784729918930000,-6.641785,-3.941670,9.192595,-3.953217,0.079236,0.959829,38
1784729918940000,-7.071041,-0.536534,10.117459,-3.948289,0.393264,0.494785,39
1784729918950000,-7.303725,2.538270,11.104614,-4.313404,0.562717,0.061378,40
1784729918960000,-7.314778,5.642077,12.208303,-4.855478,0.580413,-0.328685,41
1784729918970000,-6.274384,7.139307,11.433840,-5.588115,0.449750,-0.713915,42
1784729918980000,-4.903998,6.992497,10.424439,-6.077286,0.552843,-1.079154,43
1784729918990000,-3.238513,7.301178,9.622932,-6.437671,0.654180,-1.373866,44
1784729919000000,-2.019458,7.466461,8.727628,-6.670211,0.791406,-1.603742,45
1784729919010000,-1.165370,7.335136,7.762614,-6.790637,0.932076,-1.776230,46
1784729919020000,-0.409878,7.046936,6.967256,-6.719403,1.079701,-1.903870,47
1784729919030000,-0.149572,7.274858,6.709074,-6.505133,1.199718,-1.996989,48
1784729919040000,-0.047433,8.643431,7.471274,-6.228551,1.240156,-2.071902,49
1784729919050000,-0.146223,11.174636,8.891062,-6.062427,1.212653,-2.119573,50
1784729919060000,-0.677042,12.074807,9.602483,-6.039212,0.927921,-2.113287,51
1784729919070000,1.009312,13.502476,11.138134,-6.000758,1.026386,-2.024238,52
1784729919080000,1.007345,13.243208,11.006381,-5.975381,1.085458,-1.933394,53
1784729919090000,0.342779,13.168074,11.067610,-5.851808,1.077804,-1.776169,54
1784729919100000,0.686184,13.994278,11.659071,-5.591996,1.123152,-1.604080,55
1784729919110000,2.385894,15.194427,12.751954,-5.248781,1.444173,-1.469839,56
1784729919120000,0.269237,16.672850,13.650191,-5.155583,1.775939,-1.370293,57
1784729919130000,-0.021553,17.707396,13.636139,-4.900095,1.737622,-1.310987,58
1784729919140000,-0.479619,24.467962,16.135998,-4.762604,1.912968,-1.499656,59
1784729919150000,0.322152,27.607119,15.246565,-5.100080,2.000758,-1.795181,60
1784729919160000,-0.196611,28.894022,11.491982,-5.458807,1.877079,-2.126646,61
1784729919170000,1.656015,26.678289,3.664714,-5.616905,1.571537,-2.441272,62
1784729919180000,2.350038,23.928885,-4.913608,-5.044229,1.220098,-2.726884,63
1784729919190000,3.097329,22.701746,-14.369258,-4.095460,0.818823,-2.792990,64
1784729919200000,5.571999,25.404047,-19.241568,-2.769371,-0.175336,-2.915691,65
1784729919210000,13.195705,33.914425,-22.439350,-1.163370,-0.870964,-3.181963,66
1784729919220000,18.184118,32.890141,-22.592422,-0.823840,0.638403,-1.322661,67
1784729919230000,9.341012,23.658329,-16.927757,0.768953,1.896634,-0.316616,68
1784729919240000,5.782694,24.580315,-10.665616,1.398549,0.800131,0.621075,69
1784729919250000,4.455936,23.136345,-5.592466,2.003233,-0.156855,1.169750,70
1784729919260000,1.663833,13.961793,-3.265379,1.667294,-0.609174,1.414798,71
1784729919270000,-20.254862,-22.025311,72.561523,2.116196,2.282535,2.549211,72
1784729919280000,-32.988495,-8.882848,1.160938,1.370082,-1.027880,2.132898,73
1784729919290000,8.947908,-14.377028,-20.010571,4.692116,-3.823886,1.184674,74
1784729919300000,-6.788789,24.995754,22.133638,7.751097,0.423720,1.251780,75
1784729919310000,7.034522,26.178507,22.931044,2.992250,-0.801623,0.819611,76
1784729919320000,5.212574,7.238455,6.104186,3.769380,-0.485870,1.495554,77
1784729919330000,-1.342907,12.415636,12.986134,3.979916,-0.091974,1.527729,78
1784729919340000,-3.124814,15.138396,12.193481,3.246805,-0.304337,1.201852,79
1784729919350000,1.458275,8.564709,9.259734,3.043091,-0.391295,1.065939,80
1784729919361000,4.655179,10.060324,11.416762,2.902680,-0.110571,1.069948,81
1784729919371000,0.823655,9.037238,10.520454,2.627235,0.145186,1.223192,82
1784729919381000,-15.125186,19.590908,15.405953,2.163163,0.053294,1.238097,83
1784729919391000,-13.730081,9.040515,2.421611,0.169900,-1.480956,0.445634,84
1784729919401000,7.081079,12.405633,14.603889,1.101568,-1.256939,0.750551,85
1784729919411000,-0.921461,5.564233,7.931081,-0.412394,-0.520296,0.743282,86
1784729919421000,-1.664556,11.384562,9.156369,-0.076534,-0.479306,0.551866,87
1784729919431000,-1.365204,5.637361,8.031476,-0.316968,-0.288819,0.503789,88
1784729919441000,-1.097209,6.399858,8.337656,-0.286123,-0.307322,0.409686,89
1784729919451000,-1.354303,6.212130,8.079440,-0.178506,-0.257462,0.335074,90
1784729919461000,-1.010375,6.005503,8.048191,-0.142282,-0.217814,0.248407,91
1784729919471000,-1.139587,5.742555,8.075696,-0.084659,-0.187339,0.168725,92
1784729919481000,-1.167910,5.517889,8.130345,-0.034608,-0.156434,0.120770,93
1784729919491000,-1.407990,5.422242,8.076671,-0.003394,-0.128080,0.093585,94
1784729919501000,-1.509661,5.474522,7.977160,0.022912,-0.113944,0.083233,95
1784729919511000,-1.477361,5.516991,7.876094,0.008266,-0.117279,0.079235,96
1784729919521000,-1.649734,5.373697,7.884082,-0.018603,-0.126472,0.106023,97
1784729919531000,-1.664369,5.186986,7.880932,-0.040555,-0.135071,0.130706,98
1784729919541000,-1.424634,5.292048,7.905869,-0.047395,-0.146438,0.172980,99
1784729919551000,-1.371695,5.296875,7.929078,-0.072680,-0.139353,0.194345,100
1784729919561000,-1.352484,5.205961,7.943885,-0.070357,-0.119845,0.216542,101
1784729919571000,-1.227699,5.019297,7.991599,-0.056310,-0.095742,0.230448,102
1784729919581000,-1.189175,5.124607,7.999868,-0.038987,-0.080646,0.242717,103
1784729919591000,-1.170942,5.210295,7.917752,-0.047614,-0.068782,0.251513,104
1784729919601000,-1.026089,5.205840,8.021145,-0.025496,-0.057037,0.256054,105
1784729919611000,-1.044930,5.359125,8.029740,0.010122,-0.037121,0.254683,106
1784729919621000,-0.752033,5.306428,8.112594,0.029812,-0.031510,0.255071,107
1784729919631000,-0.945381,5.569063,7.931334,0.045599,-0.018468,0.228507,108
1784729919641000,-1.054006,5.325869,8.073112,0.049149,0.006873,0.203771,109
1784729919651000,-1.157091,5.370100,8.246039,0.128211,0.021442,0.222027,110
1784729919661000,-1.071180,5.384204,8.225771,0.142698,-0.002004,0.237775,111
1784729919671000,-1.835528,5.369611,7.953269,0.133954,0.002283,0.286407,112
1784729919681000,-0.865237,5.187744,8.258240,0.185128,-0.007646,0.310058,113
1784729919691000,-0.961679,5.264138,8.191925,0.230775,0.019406,0.312380,114
1784729919701000,-1.569440,5.069004,8.215168,0.324935,0.029354,0.343271,115
1784729919711000,-1.607596,5.174395,8.214814,0.446999,0.018812,0.400870,116
1784729919721000,-1.647432,5.046727,8.488648,0.568506,-0.003145,0.481400,117
1784729919731000,-1.514784,5.323417,8.351096,0.718568,-0.023024,0.566410,118
1784729919741000,-0.854204,4.985261,8.011211,0.914195,0.003959,0.605001,119
1784729919751000,-0.571181,4.709710,8.478173,1.338902,-0.134090,0.601876,120
1784729919761000,0.233998,4.388281,8.604663,1.764663,-0.079372,0.564136,121
1784729919771000,-0.796238,4.375092,8.502622,2.331085,-0.042354,0.631416,122
1784729919781000,-0.416755,4.456425,8.607273,2.848770,0.101689,0.758032,123
1784729919791000,-1.346074,4.440623,8.924506,3.260339,0.320194,0.862281,124
1784729919801000,-1.154943,3.435807,8.232366,3.936956,0.127508,0.972253,125
1784729919811000,-1.602395,3.767811,8.392912,4.559510,-0.054818,1.070422,126
1784729919821000,-1.511721,3.561791,8.393409,5.220513,-0.510689,1.171845,127
1784729919831000,-1.794477,4.198485,8.296339,5.879495,-0.914817,1.282438,128
1784729919841000,-1.867846,4.510598,9.293455,6.434165,-1.466404,1.335718,129
1784729919851000,-3.002739,7.284366,10.112350,7.207302,-1.638176,1.442338,130
1784729919861000,-0.906677,28.342957,9.478937,6.821759,-1.544080,1.857188,131
1784729919871000,-1.697625,2.593261,8.938352,8.044950,-1.429748,2.288466,132
1784729919881000,-2.579230,20.888926,11.602248,8.842234,-1.157174,2.506982,133
1784729919891000,-1.744806,14.670056,12.763273,9.044885,-1.490361,2.437423,134
1784729919901000,-4.086328,15.373734,13.746716,9.341093,-1.130647,2.188621,135
1784729919911000,-2.112771,23.781380,11.870360,9.158762,-1.050342,1.889667,136
1784729919921000,-4.617117,16.258827,11.763339,7.048827,-0.562230,1.819477,137
1784729919931000,-5.809851,11.347219,10.640553,5.427650,-1.049541,1.572025,138
1784729919941000,-2.023143,10.406883,20.851059,3.323023,-2.694580,1.405583,139
1784729919951000,-9.485969,49.951851,55.200352,4.006866,0.022507,1.307082,140
1784729919961000,-6.923859,0.026239,31.168894,-4.353839,-1.616881,0.363109,141
1784729919971000,-9.158922,8.393216,19.892744,-3.196522,-0.556424,0.147058,142
1784729919981000,-6.132970,-5.807961,9.506705,-3.394400,-0.398937,-0.288426,143
1784729919991000,-5.197903,-4.084472,10.633494,-3.105690,-0.048590,-0.681349,144
1784729920001000,-4.824223,-1.695582,11.575596,-3.332146,0.270004,-0.962138,145
1784729920011000,-4.227697,0.593663,12.745114,-3.822034,0.462668,-1.129302,146
1784729920021000,-3.703451,2.775386,13.500643,-4.466241,0.578942,-1.252097,147
1784729920031000,-2.937120,4.150255,13.021935,-5.188922,0.662573,-1.365796,148
1784729920041000,-2.172592,5.185061,11.661919,-5.813422,0.784959,-1.487633,149
1784729920051000,-1.884144,5.329651,10.209487,-6.250078,0.886932,-1.588931,150
1784729920061000,-1.597764,5.566384,8.966608,-6.536034,0.925620,-1.657941,151
1784729920071000,-1.253512,5.731443,7.766584,-6.646117,0.934583,-1.699494,152
1784729920081000,-1.193037,6.039420,7.209184,-6.604110,0.941988,-1.735505,153
1784729920091000,-1.091208,6.724086,7.245632,-6.462324,0.905319,-1.776272,154
1784729920101000,-0.704923,8.332227,8.126748,-6.291594,0.873983,-1.823102,155
1784729920111000,-0.615777,10.387833,9.313810,-6.202882,0.880187,-1.856958,156
1784729920121000,-0.825592,12.165413,10.348987,-6.218752,0.886043,-1.881880,157
1784729920131000,-0.860132,12.621724,10.603887,-6.224364,0.815929,-1.856745,158
1784729920141000,-0.797142,12.968635,11.016130,-6.153081,0.859508,-1.793673,159
1784729920151000,-1.229673,13.377425,11.214126,-5.855806,0.994478,-1.706174,160
1784729920161000,-0.667221,13.398899,11.799615,-5.523242,1.105784,-1.622256,161
1784729920171000,0.246774,15.666560,13.486264,-5.109215,1.464660,-1.531195,162
1784729920181000,-1.038818,16.357624,15.102017,-4.869722,1.827992,-1.473483,163
1784729920191000,-1.047843,17.372284,15.041687,-4.510339,1.879236,-1.398140,164
1784729920201000,-1.127819,20.262651,15.627047,-4.251755,1.912414,-1.425702,165
1784729920211000,-1.372530,27.106400,16.800098,-4.073544,2.097814,-1.545939,166
1784729920221000,-0.566533,31.779570,14.551244,-4.464575,2.124029,-1.844363,167
1784729920231000,0.767766,30.427021,7.674443,-4.868068,2.263874,-2.330767,168
1784729920241000,3.644589,30.211813,0.029420,-4.798954,2.371200,-2.952780,169
1784729920251000,5.247361,27.033554,-10.477470,-4.407280,2.339448,-3.500758,170
1784729920261000,3.151235,32.049034,-18.312859,-3.329137,1.527694,-3.498441,171
1784729920271000,10.394015,38.368923,-28.068598,-2.420219,-0.140326,-3.230553,172
1784729920281000,17.537458,26.208101,-28.505434,-2.146568,0.172169,-1.637070,173
1784729920291000,15.770368,22.820766,-20.922384,0.410477,0.782553,-0.165985,174
1784729920301000,10.162657,24.575003,-9.433518,1.031786,0.636503,0.989615,175
1784729920311000,5.278468,24.474701,-2.311119,1.353482,0.149066,1.720582,176
1784729920321000,0.755819,-0.999169,3.388896,0.248901,-0.627855,3.229586,177
1784729920331000,-24.963385,-13.522976,11.988898,1.077223,1.131521,3.740731,178
1784729920341000,-11.763757,-2.651419,5.498765,2.591329,-3.837875,3.869891,179
1784729920351000,4.542175,-5.418122,1.977134,3.922273,-1.900458,3.190699,180
1784729920361000,-4.800319,16.903811,16.600891,5.306722,0.035777,1.586456,181
1784729920371000,-1.623797,19.572149,16.995457,3.964810,-0.324710,1.102372,182
1784729920382000,3.623235,13.240528,10.463310,3.569157,-0.613595,1.448456,183
1784729920392000,2.047206,11.425942,11.686351,3.538814,-0.436458,1.461179,184
1784729920401000,-1.463245,12.093733,11.035808,3.247756,-0.236462,1.302346,185
1784729920412000,-2.162443,9.559653,9.716537,2.971378,-0.254057,1.066938,186
1784729920422000,-3.188287,12.223457,13.162978,2.827822,-0.326435,0.953012,187
1784729920432000,-12.416691,23.064819,15.025886,1.869323,-0.740545,0.631231,188
1784729920442000,-0.454494,5.280687,7.024519,0.615705,-1.201864,0.205986,189
1784729920452000,0.162180,12.876595,11.970375,0.580152,-0.332533,0.308546,190
1784729920462000,-2.065317,4.929758,7.992928,0.546639,-0.312088,0.123257,191
1784729920472000,-0.592715,8.851450,9.401913,0.305746,-0.297848,0.043646,192
1784729920482000,-1.991943,6.367975,8.358345,0.236266,-0.106757,0.006116,193
1784729920492000,-1.768586,6.065437,8.262413,0.185095,-0.105006,-0.014288,194
1784729920502000,-1.880672,6.055151,8.101398,0.162683,-0.047457,-0.018763,195
1784729920512000,-1.868318,5.968100,7.949019,0.151615,-0.003096,-0.037487,196
1784729920522000,-1.594682,5.661782,8.048412,0.157600,0.032943,-0.072832,197
1784729920532000,-1.833948,5.652629,8.051394,0.177588,0.062051,-0.101602,198
1784729920542000,-1.997981,5.422639,7.969168,0.181909,0.064323,-0.095538,199
1784729920552000,-2.200981,5.666114,7.783396,0.201008,0.058438,-0.099101,200
1784729920562000,-2.089766,5.441550,7.898464,0.178708,0.049416,-0.085733,201
1784729920572000,-2.334752,5.494189,7.819806,0.156427,0.048624,-0.048195,202
1784729920582000,-2.677226,5.641893,7.588693,0.098305,0.020076,0.006882,203
1784729920592000,-2.514044,5.603547,7.630009,0.045680,-0.013239,0.069731,204
1784729920602000,-2.595902,5.220669,7.629201,-0.007387,-0.045395,0.131040,205
1784729920612000,-2.326820,5.412094,7.696114,-0.028092,-0.069041,0.185953,206
1784729920622000,-2.342792,5.349190,7.572563,-0.058916,-0.063665,0.210427,207
1784729920632000,-2.236087,5.206100,7.701388,-0.053688,-0.074570,0.242000,208
1784729920642000,-2.077396,5.316226,7.751163,-0.045339,-0.078956,0.270764,209
1784729920652000,-1.880569,5.454929,7.785917,-0.064801,-0.062621,0.297023,210
1784729920662000,-1.972111,5.780182,7.703275,-0.147207,-0.092459,0.295000,211
1784729920672000,-1.257637,5.370251,8.242483,-0.142272,-0.064535,0.290318,212
1784729920682000,-2.033729,5.775771,7.751841,-0.141573,-0.074591,0.279472,213
1784729920692000,-1.787796,5.570440,7.922459,-0.160810,-0.032668,0.258430,214
1784729920702000,-1.870038,5.464913,7.862162,-0.151704,-0.056512,0.244580,215
1784729920712000,-2.048146,5.220720,7.804109,-0.150907,-0.051772,0.245418,216
1784729920722000,-2.062756,5.105793,7.795623,-0.106447,-0.040454,0.262334,217
1784729920732000,-2.274351,5.220530,7.701741,-0.043649,-0.021932,0.270598,218
1784729920742000,-1.572268,4.833274,8.011570,0.023992,-0.036204,0.263903,219
1784729920752000,-1.492323,5.454540,7.833757,0.102217,-0.015105,0.261068,220
1784729920762000,-1.931831,5.111125,7.932557,0.164094,-0.001185,0.275490,221
1784729920772000,-2.160643,5.298532,7.986445,0.216426,-0.054582,0.332418,222
1784729920782000,-2.645537,5.250817,7.868481,0.227761,-0.126930,0.421944,223
1784729920792000,-2.621086,5.294075,7.906074,0.279904,-0.189898,0.487944,224
1784729920802000,-1.968106,5.504455,8.054177,0.350810,-0.205478,0.503748,225
1784729920812000,-1.438589,5.313548,8.321576,0.513266,-0.172669,0.493197,226
1784729920822000,-0.924664,4.995548,8.117108,0.709707,-0.065855,0.477156,227
1784729920832000,-1.584072,4.834445,8.217168,1.077688,-0.031545,0.472968,228
1784729920842000,-0.423041,4.742855,8.457000,1.533096,-0.077954,0.435895,229
1784729920852000,-1.514975,4.356781,8.435056,2.061199,-0.007183,0.470296,230
1784729920862000,-0.775783,4.048120,8.256445,2.691073,0.122319,0.510188,231
1784729920872000,-0.526539,3.799054,8.312686,3.366487,0.292708,0.515108,232
1784729920882000,-1.433754,4.215663,8.052907,3.948122,0.484576,0.508320,233
1784729920892000,-1.693849,2.574133,8.087932,4.710881,0.276593,0.597589,234
1784729920902000,-1.750206,3.947506,8.804241,5.388084,0.134506,0.689251,235
1784729920912000,-2.840004,3.863839,8.923269,5.892051,-0.219052,0.757610,236
1784729920922000,-2.866735,4.386333,9.029436,6.307113,-0.604773,0.875928,237
1784729920932000,-4.199177,8.452234,8.837276,7.133049,-0.437213,1.164204,238
1784729920942000,-4.238074,15.008079,10.812799,6.411774,0.505918,3.944916,239
1784729920952000,0.403215,10.230447,13.153877,7.376994,-0.252033,2.715211,240
1784729920962000,-2.473573,19.669712,10.215192,8.880767,-0.490876,2.139986,241
1784729920972000,-3.529390,15.023087,11.998614,8.807817,-0.796540,2.159299,242
1784729920982000,-4.769496,14.811761,12.359373,9.145773,-0.353740,2.346894,243
1784729920992000,-6.519577,15.183851,12.444669,9.129568,-0.933070,1.971184,244
1784729921002000,-4.700336,20.493504,13.876884,7.755106,-0.429923,2.266042,245
1784729921012000,-3.715813,16.022341,9.986272,6.353366,-0.641387,2.043878,246
1784729921022000,-7.838443,8.909414,9.011787,4.869106,-0.495497,1.787651,247
1784729921032000,-0.094936,17.680555,25.076288,3.903708,-1.883904,1.579155,248
1784729921042000,-17.617290,55.487564,58.084984,0.247803,-0.792170,0.654192,249
1784729921052000,-5.215172,-9.426512,35.622253,-6.533463,-1.345766,0.752140,250
1784729921062000,-6.490857,-1.685138,13.793769,-4.345873,-0.869608,0.635971,251
1784729921072000,-4.587992,-7.673018,6.931715,-3.308240,-0.451583,0.428143,252
1784729921082000,-5.269496,-0.271642,11.799309,-2.948330,0.000781,0.224528,253
1784729921092000,-5.231219,4.443835,15.169090,-3.633429,0.325779,0.000862,254
1784729921102000,-4.732820,4.725604,15.194286,-4.698974,0.536323,-0.203263,255
1784729921112000,-4.253388,4.078005,13.401652,-5.582097,0.685465,-0.339451,0
1784729921122000,-3.736881,3.243660,10.759496,-6.207196,0.774952,-0.416598,1
1784729921132000,-3.411070,4.203362,9.534413,-6.501041,0.919241,-0.513368,2
1784729921142000,-3.175236,4.687310,8.820609,-6.703048,1.017597,-0.655876,3
1784729921152000,-2.961660,5.176833,8.240825,-6.883196,1.091575,-0.833745,4
1784729921162000,-2.252022,5.425522,7.551753,-6.912492,1.171334,-1.031952,5
1784729921172000,-0.939011,5.737711,7.270554,-6.676059,1.392366,-1.276159,6
1784729921182000,-0.392140,7.404193,8.359505,-6.437411,1.595780,-1.406982,7
1784729921192000,-0.342276,9.600336,9.837423,-6.303681,1.768441,-1.518961,8
1784729921202000,-1.200628,11.631509,10.649167,-6.294051,1.799597,-1.619647,9
1784729921212000,-0.399381,12.252624,11.518565,-6.264894,1.764087,-1.648172,10
1784729921222000,-1.049196,12.713551,11.556338,-6.179117,1.761512,-1.667536,11
1784729921232000,-1.458266,12.493113,11.395789,-5.913210,1.746788,-1.688429,12
1784729921242000,-0.930993,12.932333,12.188704,-5.412964,1.796783,-1.695699,13
1784729921252000,-1.269080,16.418291,13.895459,-4.923268,1.911546,-1.715031,14
1784729921262000,-4.205929,16.605358,14.780256,-4.604605,1.942292,-1.796932,15
1784729921272000,-3.165556,19.178234,15.435682,-4.182317,1.571698,-2.127551,16
1784729921282000,-0.460138,27.995764,17.728180,-3.872872,1.778860,-2.547199,17
1784729921292000,-0.775469,35.429649,17.392368,-4.345256,2.055785,-2.983158,18
1784729921302000,-1.203320,35.468475,12.222465,-5.012004,1.990595,-3.607106,19
1784729921312000,-0.052963,33.444683,2.548301,-5.452765,1.345523,-4.184426,20
1784729921322000,3.301597,28.725903,-8.942692,-4.908726,0.496550,-4.535843,21
1784729921332000,3.391879,27.090393,-18.850664,-3.864338,-0.421830,-4.497839,22
1784729921342000,8.990872,32.627113,-24.466280,-2.494194,-1.790911,-4.484447,23
1784729921352000,17.764973,36.268425,-28.175404,-1.291576,-1.826406,-3.368173,24
1784729921362000,22.750484,24.303387,-21.654316,-0.278149,0.743613,-1.486553,25
1784729921372000,10.616926,27.261234,-14.367133,1.102288,1.800237,-0.254922,26
1784729921382000,3.839808,23.823137,-7.104999,1.505071,1.270593,0.782061,27
1784729921392000,-1.875129,6.978875,-7.353814,0.995905,0.155551,1.953654,28
1784729921403000,-19.334795,-11.707995,21.477095,1.551890,1.585442,3.023008,29
1784729921413000,-20.564518,-4.524661,14.589086,3.194823,-2.936263,3.088688,30
1784729921423000,3.602809,-8.391926,-0.138540,3.992943,-2.206205,2.303463,31
1784729921432000,-7.611639,18.914419,13.145715,5.750269,0.182755,1.232588,32
1784729921443000,3.720133,19.537405,18.392849,3.987064,-0.793290,0.853037,33
1784729921453000,7.610234,11.714519,11.038270,3.765126,-0.598482,1.489525,34
1784729921463000,2.881561,12.171232,12.511378,3.681041,0.093221,1.821615,35
1784729921473000,-4.665420,13.292542,11.261359,3.291394,0.196127,1.712933,36
1784729921483000,-5.186908,10.814187,8.830949,2.950422,-0.193323,1.336263,37
1784729921493000,-1.398793,11.115880,11.702011,2.804459,-0.370440,1.029213,38
1784729921503000,-8.333947,21.563320,18.299181,2.182851,-0.542290,1.048482,39
1784729921513000,-8.094659,9.021112,4.938220,0.246302,-0.951005,0.389934,40
1784729921523000,1.600349,11.812530,13.045797,1.122193,-0.736841,0.456013,41
1784729921533000,0.148678,5.142656,8.208030,-0.120915,-0.440835,0.398871,42
1784729921543000,-3.114738,8.904090,8.634223,0.283554,-0.398039,0.284015,43
1784729921553000,-1.009883,6.658627,8.406258,0.006629,-0.425237,0.303859,44
1784729921563000,-2.048927,6.387412,8.392335,-0.161795,-0.438104,0.349520,45
1784729921573000,-1.831005,6.438674,8.207713,-0.226773,-0.415745,0.354042,46
1784729921583000,-1.487308,5.533349,8.229675,-0.246508,-0.331420,0.318470,47
1784729921593000,-1.338518,5.916082,8.224894,-0.214163,-0.290656,0.269493,48
1784729921603000,-1.017950,5.786310,8.231558,-0.173178,-0.278554,0.216575,49
1784729921613000,-1.439742,5.341740,8.225807,-0.138767,-0.233940,0.183970,50
1784729921623000,-1.551424,5.121099,8.118980,-0.089114,-0.221327,0.157975,51
1784729921633000,-1.921433,4.958363,8.014846,-0.056380,-0.195504,0.156434,52
1784729921643000,-1.614992,5.273714,7.994335,-0.028148,-0.197883,0.164396,53
1784729921653000,-1.888170,5.264433,7.964283,-0.063147,-0.195770,0.171994,54
1784729921663000,-1.978840,5.121157,7.999946,-0.064747,-0.192086,0.210924,55
1784729921673000,-1.773884,5.345325,7.909703,-0.078966,-0.206627,0.263735,56
1784729921683000,-1.930890,5.054129,8.014217,-0.120399,-0.224860,0.293153,57
1784729921693000,-1.139087,5.513104,8.139589,-0.080350,-0.183750,0.293125,58
1784729921703000,-1.076708,5.307321,8.173875,-0.091965,-0.188977,0.265362,59
1784729921713000,-0.832668,5.306891,8.170910,-0.057813,-0.149110,0.231920,60
1784729921723000,-0.824310,5.536006,8.049574,-0.042966,-0.120249,0.189688,61
1784729921733000,-0.867590,5.253676,8.061849,-0.023692,-0.079754,0.148197,62
1784729921743000,-1.150202,5.057862,8.062030,0.007879,-0.026851,0.120409,63
1784729921753000,-1.045888,5.100310,7.979201,0.024804,0.001796,0.109881,64
1784729921763000,-1.248980,4.948753,8.212204,0.076268,0.019889,0.118636,65
1784729921773000,-1.256429,4.751384,8.017920,0.074479,0.027195,0.121781,66
1784729921783000,-1.350193,5.087366,8.140685,0.120399,0.077675,0.124504,67
1784729921793000,-1.332437,5.220688,8.015201,0.174177,0.132084,0.122113,68
1784729921803000,-1.150041,5.244545,8.055800,0.230307,0.186067,0.107874,69
1784729921813000,-1.144756,5.316535,8.088624,0.254613,0.203793,0.100433,70
1784729921823000,-1.636988,5.451664,8.131788,0.260130,0.124946,0.136325,71
1784729921833000,-1.791592,5.503903,8.009030,0.278966,0.057904,0.186960,72
1784729921843000,-1.849343,5.374663,7.996402,0.293760,0.024311,0.240771,73
1784729921853000,-1.776392,5.265012,8.101486,0.331867,-0.008161,0.288780,74
1784729921863000,-1.617604,5.054593,8.191975,0.398229,-0.037947,0.330557,75
1784729921873000,-1.487627,5.212617,8.236949,0.509888,-0.020190,0.370571,76
1784729921883000,-1.357124,5.112492,8.350816,0.659978,-0.033173,0.418389,77
1784729921893000,-0.649195,5.087201,8.323288,0.840745,-0.010066,0.462623,78
1784729921903000,-1.941648,4.433731,8.367976,1.179424,-0.066133,0.507516,79
1784729921913000,-0.355436,4.709517,8.508997,1.532284,-0.029533,0.513122,80
1784729921923000,-1.387911,4.508713,8.245980,2.024251,-0.024110,0.607845,81
1784729921933000,-0.680335,4.435414,8.194938,2.474863,0.115177,0.709857,82
1784729921943000,-0.587954,5.372070,7.058881,3.006760,0.311952,0.758656,83
1784729921953000,-1.134081,3.070264,8.794002,3.505710,0.341395,0.728588,84
1784729921963000,-0.823314,3.665555,8.322111,4.198914,0.220176,0.721076,85
1784729921973000,-1.117650,3.638418,8.517031,4.788146,0.096503,0.769131,86
1784729921983000,-1.627711,4.197871,8.236977,5.325051,-0.262554,0.843114,87
1784729921993000,-2.314656,4.814654,8.737478,5.810159,-0.710141,0.994743,88
1784729922003000,-3.244529,5.434996,8.944658,6.331340,-1.072552,1.263606,89
1784729922013000,-5.514985,11.788725,10.060150,6.738948,-1.299777,1.691834,90
1784729922023000,-1.850073,20.146589,16.057217,6.359554,-0.468567,3.211519,91
1784729922033000,-4.389878,3.878780,12.836253,7.222904,-1.226914,2.529343,92
1784729922043000,-3.215689,17.872910,12.302363,7.845826,-0.944897,2.692250,93
1784729922053000,-2.041698,14.616640,10.827345,8.111834,-1.161282,2.617798,94
1784729922063000,-4.336397,14.713037,10.247678,8.470068,-0.967379,2.479596,95
1784729922073000,-1.497366,19.723274,9.815865,8.412271,-0.858177,2.228369,96
1784729922083000,-1.864377,14.323363,8.949627,6.766747,-0.074037,2.152912,97
1784729922093000,-2.798632,12.734216,7.874344,5.545280,0.305309,1.861326,98
1784729922103000,-7.726385,12.194031,14.231396,3.879891,-0.164979,1.784188,99
1784729922113000,1.374308,32.964241,37.769226,5.385442,-0.178855,1.888053,100
1784729922123000,-12.546803,29.488916,25.088282,-3.159161,-0.371315,1.581599,101
1784729922133000,-6.480889,3.150667,16.412781,-2.344846,-0.315808,1.402140,102
1784729922143000,-5.630423,-3.930223,12.400720,-3.867556,-0.441620,0.868028,103
1784729922153000,-5.604005,-6.469718,8.621439,-3.309246,0.028395,0.442800,104
1784729922163000,-5.812771,-3.855991,8.498561,-3.081676,0.342139,-0.044452,105
1784729922173000,-6.112134,-0.984525,9.918145,-3.111171,0.441437,-0.484923,106
1784729922183000,-5.738849,2.932255,11.827920,-3.750771,0.377495,-1.089394,107
1784729922193000,-4.930029,4.440293,12.059614,-4.372833,0.301872,-1.433875,108
1784729922203000,-3.927994,6.006699,11.657780,-4.988908,0.248637,-1.713508,109
1784729922213000,-2.850295,5.989238,10.574485,-5.516191,0.223165,-1.908459,110
1784729922223000,-1.541083,6.264072,9.605559,-5.864773,0.330637,-2.040433,111
1784729922233000,-0.895327,6.751365,8.757731,-6.086592,0.529940,-2.135224,112
1784729922243000,-0.813232,6.914717,8.029176,-6.198539,0.677000,-2.196028,113
1784729922253000,-0.640015,7.285909,7.680154,-6.193916,0.750982,-2.213934,114
1784729922263000,-0.408254,8.090300,7.761874,-6.095205,0.789252,-2.194688,115
1784729922273000,-0.448720,9.524384,8.209938,-5.981847,0.798110,-2.157919,116
1784729922283000,-0.608213,11.300832,9.058161,-5.915793,0.771645,-2.146572,117
1784729922293000,-0.517634,12.290522,9.699209,-5.869992,0.689021,-2.089885,118
1784729922303000,0.485829,12.823557,10.289697,-5.824824,0.670284,-2.003372,119
1784729922313000,0.611494,12.307602,9.671007,-5.687182,0.873255,-1.888214,120
1784729922323000,0.117858,12.006677,9.645901,-5.309348,1.063401,-1.708946,121
1784729922333000,0.203678,13.086825,11.050820,-4.848688,1.183940,-1.512957,122
1784729922343000,1.427445,16.149349,13.707062,-4.517965,1.444751,-1.329318,123
1784729922353000,0.168739,20.088020,15.612630,-4.570171,1.739923,-1.165140,124
1784729922363000,-0.068392,18.801048,13.991360,-4.773206,1.757884,-1.072982,125
1784729922373000,-0.254521,25.556459,15.651763,-4.677272,2.033370,-1.147909,126
1784729922383000,-0.295554,27.745096,14.048897,-4.979819,2.266670,-1.393890,127
1784729922393000,-0.559658,27.001541,9.427794,-5.381903,2.145375,-1.758606,128
1784729922403000,-0.604340,26.487913,3.182421,-5.208618,1.969110,-2.241354,129
1784729922413000,0.448145,24.810715,-3.616758,-4.795656,1.559984,-2.737286,130
1784729922423000,1.968777,22.307650,-11.557213,-4.039380,1.060549,-3.111459,131
1784729922434000,2.419143,25.073000,-16.042242,-2.790236,0.350034,-3.191156,132
1784729922444000,7.076478,28.488070,-18.648319,-1.776206,-0.444481,-2.961568,133
1784729922454000,12.790613,26.564848,-19.233278,-1.028791,-0.295183,-2.276816,134
1784729922464000,15.063840,24.044857,-16.278870,0.059575,0.559159,-1.442764,135
1784729922474000,9.364725,21.277252,-12.074001,0.998000,0.934298,-0.407500,136
1784729922484000,6.441749,20.614305,-6.514455,1.513525,0.552513,0.470215,137
1784729922494000,-4.285079,4.141931,-3.422554,1.419385,-0.162465,1.663976,138
1784729922504000,-9.377624,-8.861808,20.626684,1.374803,-0.582146,2.479206,139
1784729922514000,-4.539040,0.286416,15.068723,2.862530,-2.248675,2.506308,140
1784729922524000,4.685500,-7.188418,1.367971,3.735475,-1.291958,2.128421,141
1784729922534000,-2.537796,13.726799,13.363188,4.419007,0.124646,1.565254,142
1784729922544000,-0.103132,14.983876,15.440557,3.604304,0.193291,1.263932,143
1784729922554000,-1.282285,9.788116,8.886980,3.417826,0.184855,1.310378,144
1784729922564000,-1.549818,11.885778,10.637106,3.522687,0.194553,1.258494,145
1784729922574000,-1.884626,10.941180,11.135892,3.230120,0.240683,0.936233,146
1784729922584000,-1.130735,9.007201,8.838641,3.027506,0.084189,0.842167,147
1784729922594000,-2.196822,9.398785,10.047901,2.894885,0.096720,0.779837,148
1784729922604000,-15.089004,19.425793,17.566549,2.381474,-0.653674,0.704783,149
1784729922614000,-6.775437,8.948985,4.425797,0.782373,-1.431711,-0.006016,150
1784729922624000,7.703351,14.143234,15.591027,1.525001,-0.646387,0.290406,151
1784729922634000,-1.843346,4.825409,7.379426,0.094854,-0.242429,0.153739,152
1784729922644000,-2.948251,9.757217,8.850149,0.642481,-0.366553,0.067314,153
1784729922654000,-0.521225,6.679321,8.830191,0.272481,-0.063517,0.101357,154
1784729922664000,-2.528481,6.524393,7.914505,0.200432,-0.101763,0.095059,155
1784729922674000,-1.146165,6.418586,8.247320,0.156896,-0.059356,0.079918,156
1784729922684000,-1.267816,6.212138,8.107057,0.130631,-0.011076,0.023250,157
1784729922694000,-1.386720,6.222242,8.165764,0.177547,0.065126,-0.061632,158
1784729922704000,-1.431113,5.800652,8.102682,0.200681,0.095816,-0.109647,159
1784729922714000,-1.797652,5.881347,7.867604,0.226265,0.102217,-0.133925,160
1784729922724000,-1.871033,5.727636,7.755013,0.229802,0.104784,-0.142357,161
1784729922734000,-2.101522,5.498004,7.716597,0.216327,0.097584,-0.134772,162
1784729922744000,-2.370971,5.497811,7.600421,0.204581,0.090657,-0.104052,163
1784729922754000,-2.289455,5.641291,7.598315,0.191792,0.052440,-0.057031,164
1784729922764000,-2.299610,5.497498,7.566108,0.148486,0.018558,-0.004952,165
1784729922774000,-2.184155,5.765525,7.586513,0.096954,-0.036102,0.076979,166
1784729922784000,-2.577886,5.674696,7.491665,0.018453,-0.093839,0.181246,167
1784729922794000,-2.492924,5.587891,7.405298,-0.066681,-0.149680,0.272183,168
1784729922804000,-2.241791,5.583704,7.588626,-0.082123,-0.154119,0.306815,169
1784729922814000,-1.972856,5.751138,7.646171,-0.077815,-0.164620,0.331424,170
1784729922824000,-1.703509,5.765641,7.752680,-0.090968,-0.140534,0.332381,171
1784729922834000,-1.760942,5.655684,7.763789,-0.115463,-0.115075,0.311368,172
1784729922844000,-1.598265,5.741518,7.751587,-0.101336,-0.084396,0.284299,173
1784729922854000,-1.488033,5.688769,7.769769,-0.074796,-0.057386,0.244121,174
1784729922864000,-1.492357,5.827747,7.792633,-0.073178,-0.032830,0.205357,175
1784729922874000,-1.570140,5.798624,7.698241,-0.073680,-0.000890,0.158993,176
1784729922884000,-1.612327,5.689042,7.780835,-0.070023,-0.003930,0.127094,177
1784729922894000,-1.684389,5.799093,7.747410,-0.068844,-0.008227,0.108549,178
1784729922904000,-1.578972,5.870746,7.750349,-0.083455,-0.023294,0.095212,179
1784729922914000,-1.737491,5.655429,7.725280,-0.099079,-0.018637,0.082040,180
1784729922924000,-1.774616,5.579456,7.826664,-0.080915,-0.019153,0.087414,181
1784729922934000,-1.714693,5.654881,7.634221,-0.105554,-0.038632,0.107107,182
1784729922944000,-1.969826,5.319701,7.549142,-0.123974,-0.031489,0.135476,183
1784729922954000,-2.034845,5.181942,7.723018,-0.081984,-0.030960,0.164609,184
1784729922964000,-1.951879,4.995914,7.871579,-0.039672,-0.069639,0.227284,185
1784729922974000,-2.317824,5.277842,7.663599,-0.026407,-0.083450,0.308677,186
1784729922984000,-2.163079,5.144323,7.806100,-0.004973,-0.095724,0.361155,187
1784729922994000,-2.135493,5.497850,7.678785,0.004883,-0.099489,0.397486,188
1784729923004000,-1.790093,5.583764,7.736033,0.013450,-0.100592,0.396357,189
1784729923014000,-1.621010,5.536340,7.868134,0.052946,-0.086797,0.370418,190
1784729923024000,-1.131802,5.535986,7.952972,0.096187,-0.081276,0.320315,191
1784729923034000,-0.985909,5.926990,7.714028,0.182078,-0.061277,0.278722,192
1784729923044000,-1.125197,5.369322,8.116645,0.242283,-0.028380,0.240586,193
1784729923054000,-1.436865,5.584905,8.047090,0.308402,-0.017385,0.220968,194
1784729923064000,-1.609628,5.613694,8.005964,0.378881,-0.006300,0.227164,195
1784729923074000,-1.653553,5.689943,7.929455,0.435956,-0.018150,0.245867,196
1784729923084000,-1.486459,5.464585,7.919615,0.524898,-0.010011,0.262659,197
1784729923094000,-1.333353,5.349470,7.928204,0.659572,0.028126,0.286259,198
1784729923104000,-1.504466,5.067980,8.051927,0.880741,0.040027,0.322331,199
1784729923114000,-0.864301,5.025476,8.350274,1.197122,0.012697,0.325458,200
1784729923124000,-1.501793,4.820365,8.292727,1.588694,0.118408,0.345162,201
1784729923134000,-1.036884,4.504082,8.380314,2.066084,0.174804,0.342555,202
1784729923144000,-0.697150,4.345578,8.391747,2.618295,0.310566,0.268753,203
1784729923154000,-0.232012,3.670531,8.534677,3.196041,0.434426,0.088891,204
1784729923164000,-1.327384,4.055913,7.770939,3.904220,0.623003,-0.046352,205
1784729923174000,-1.515332,3.937705,8.834907,4.410995,0.389340,-0.129001,206
1784729923184000,-1.531265,5.032291,9.366539,5.023222,0.393791,-0.164747,207
1784729923194000,-1.936286,5.679738,9.442889,5.684648,0.302361,-0.079596,208
1784729923204000,-1.778435,8.581242,9.523557,6.057571,0.386419,0.119854,209
1784729923214000,-3.047321,13.525434,9.734728,6.320776,0.491244,0.493504,210
1784729923224000,-3.759189,12.809451,9.906630,6.409492,0.685657,1.034827,211
1784729923234000,-3.875907,12.526502,9.786014,6.453088,0.857130,1.189225,212
1784729923244000,-5.483500,13.033994,10.155217,6.341909,0.511366,0.859783,213
1784729923254000,-4.793466,14.834973,9.655015,6.142639,0.225949,0.905416,214
1784729923264000,-4.149568,18.111767,11.069532,5.399917,0.228916,1.063421,215
1784729923274000,-3.614574,19.059967,11.275458,4.424052,-0.049460,1.079125,216
1784729923284000,-2.435026,11.977532,7.942692,2.627557,-0.429261,0.955860,217
1784729923294000,-8.655185,3.712710,5.822451,1.312849,-0.482775,0.712625,218
1784729923304000,-14.475912,20.437271,24.828457,3.430457,-1.104234,0.225619,219
1784729923314000,-9.834920,4.201464,9.818039,-2.445273,-3.640792,-0.249726,220
1784729923324000,-3.507274,1.657475,6.287055,0.127971,-3.504619,0.166456,221
1784729923334000,2.092275,-2.223405,7.467519,-0.553570,-3.319862,0.377411,222
1784729923344000,1.983148,0.550556,10.342902,-0.813135,-2.496003,0.548207,223
1784729923354000,-0.524725,1.757449,11.367463,-1.283813,-1.856026,0.677486,224
1784729923364000,-3.037350,1.513331,10.616299,-1.971214,-1.792935,0.825937,225
1784729923374000,-3.864215,1.015906,9.598126,-2.507545,-1.980012,0.955661,226
1784729923384000,-3.935413,0.598324,8.531916,-2.905456,-2.279565,1.047360,227
1784729923394000,-4.469378,1.863364,8.566813,-3.206980,-2.460751,1.042945,228
1784729923404000,-5.052323,3.211482,8.888354,-3.566865,-2.544176,0.895696,229
1784729923414000,-5.180500,4.444517,8.459854,-3.956175,-2.504064,0.605676,230
1784729923424000,-5.732887,4.270605,7.158694,-4.243681,-2.396484,0.232469,231
1784729923434000,-6.519424,4.417838,5.853110,-4.330311,-2.316417,-0.176524,232
1784729923444000,-7.252494,5.002934,4.954401,-4.281348,-2.323678,-0.624650,233
1784729923455000,-7.556172,6.040794,4.672899,-4.152423,-2.374120,-1.108146,234
1784729923465000,-7.588049,7.563179,4.647130,-4.002775,-2.390872,-1.588409,235
1784729923475000,-7.673450,9.037408,4.555490,-3.892427,-2.393637,-2.053345,236
1784729923485000,-7.199902,10.194442,4.416510,-3.731084,-2.433621,-2.454961,237
1784729923495000,-6.633594,10.902361,4.471018,-3.612066,-2.414524,-2.685759,238
1784729923505000,-6.517179,11.546671,4.144457,-3.401894,-2.368067,-2.815771,239
1784729923515000,-6.648107,12.091601,3.950690,-3.211344,-2.354799,-2.892008,240
1784729923525000,-6.857465,12.594919,3.997110,-3.012790,-2.350426,-2.963415,241
1784729923535000,-7.609544,12.605445,3.939282,-2.819723,-2.306238,-3.078012,242
1784729923545000,-8.205575,12.748835,3.716065,-2.596059,-2.247529,-3.286244,243
1784729923555000,-9.235703,12.743109,3.236485,-2.350867,-2.114876,-3.609646,244
1784729923565000,-9.878448,12.021499,2.423278,-2.001123,-2.041064,-4.036016,245
1784729923575000,-10.136274,11.866938,2.102696,-1.602465,-1.950131,-4.520885,246
1784729923585000,-10.019956,11.826962,1.838789,-1.220986,-1.892130,-4.966472,247
1784729923595000,-9.162372,12.249153,2.255117,-0.839896,-1.827842,-5.343935,248
1784729923605000,-8.578839,12.522907,2.585145,-0.566337,-1.747260,-5.619505,249
1784729923615000,-8.600516,12.921105,2.725663,-0.313989,-1.717984,-5.784391,250
1784729923625000,-9.425737,13.634526,2.486473,-0.132013,-1.783220,-5.846776,251
1784729923635000,-9.984405,14.291577,2.521614,-0.018151,-2.027765,-5.815762,252
1784729923645000,-9.426968,14.115094,1.952374,0.012121,-2.310603,-5.721729,253
1784729923655000,-7.667601,13.484949,1.099677,0.077024,-2.454607,-5.525898,254
1784729923665000,-6.082050,13.282423,0.465571,0.235071,-2.386136,-5.222986,255
1784729923675000,-5.884241,13.716074,0.163548,0.406392,-2.214568,-4.851202,0
1784729923685000,-6.690661,13.604149,-0.403937,0.503959,-2.151946,-4.498237,1
1784729923695000,-6.679127,13.189200,-0.974241,0.674078,-2.148484,-4.235952,2
1784729923705000,-6.534268,12.348338,-2.326486,0.960179,-2.016295,-3.936329,3
1784729923715000,-5.926439,11.039362,-3.346253,1.263193,-1.894128,-3.793188,4
1784729923725000,-4.900939,11.059995,-3.626469,1.689825,-1.638947,-3.661876,5
1784729923735000,-4.341520,11.778704,-3.356941,2.059493,-1.298875,-3.530688,6
1784729923745000,-5.335574,12.283432,-3.296207,2.328399,-1.099118,-3.423568,7
1784729923755000,-6.475755,13.188715,-2.711203,2.598415,-1.149417,-3.315541,8
1784729923765000,-6.396554,13.349822,-2.130475,2.644730,-1.379458,-3.253629,9
1784729923775000,-10.315936,18.312290,-0.310390,2.944436,-1.872822,-2.771945,10
1784729923785000,4.466953,18.557611,-0.764492,2.099632,-3.420235,-1.992081,11
1784729923795000,-11.925330,15.759525,3.312675,1.899962,-3.064466,-2.238229,12
1784729923805000,-4.422104,6.457216,3.035614,1.018275,-3.505625,-2.493316,13
1784729923815000,-0.345073,5.815643,7.687984,1.408911,-3.642420,-2.341616,14
1784729923825000,3.536362,8.543254,12.044209,1.099871,-3.386906,-2.262086,15
1784729923835000,4.129823,8.430522,10.900650,0.434625,-2.334208,-2.048009,16
1784729923845000,-0.807480,7.586711,9.194550,0.076101,-1.545172,-1.759175,17
1784729923855000,-3.026688,5.063468,7.640440,-0.257437,-1.460697,-1.534048,18
1784729923865000,-0.247308,8.940469,8.302809,-0.221033,-1.250082,-1.391708,19
1784729923875000,-1.717411,7.206126,7.641320,-0.638511,-0.990556,-1.285237,20
