time,accel_x,accel_y,accel_z,gyro_x,gyro_y,gyro_z,frame_number
1784563959929000,-9.176243,-0.204398,3.422594,0.013288,0.003155,-0.008373,0
1784563959939000,-9.166799,-0.190023,3.427703,0.021389,0.002651,-0.009039,1
1784563959949000,-9.166424,-0.189936,3.413309,0.030510,0.003314,-0.010796,2
1784563959959000,-9.166175,-0.189878,3.403712,0.035877,0.003374,-0.012477,3
1784563959969000,-9.171354,-0.185177,3.417998,0.039585,0.004568,-0.014144,4
1784563959979000,-9.185389,-0.175519,3.403257,0.040638,0.004594,-0.015749,5
1784563959989000,-9.195033,-0.146757,3.403113,0.041151,0.004616,-0.017344,6
1784563959999000,-9.185090,-0.132266,3.389029,0.043908,0.002918,-0.017372,7
1784563960009000,-9.199372,-0.122667,3.383885,0.042804,0.002928,-0.018938,8
1784563960019000,-9.185390,-0.103547,3.398737,0.041644,0.005211,-0.018946,9
1784563960029000,-9.175804,-0.098735,3.399011,0.039545,0.004036,-0.017837,10
1784563960039000,-9.185756,-0.108430,3.413113,0.038469,0.003467,-0.018868,11
1784563960049000,-9.195582,-0.118095,3.422417,0.035291,0.002283,-0.017739,12
1784563960059000,-9.219176,-0.127638,3.407346,0.032665,0.000537,-0.017143,13
1784563960069000,-9.247575,-0.132392,3.392167,0.032273,-0.002924,-0.015507,14
1784563960079000,-9.252329,-0.156381,3.391946,0.030925,-0.009831,-0.013812,15
1784563960089000,-9.252429,-0.170798,3.396689,0.030646,-0.016724,-0.012665,16
1784563960099000,-9.228293,-0.185121,3.392473,0.032975,-0.021298,-0.012121,17
1784563960109000,-9.228643,-0.199597,3.406813,0.035749,-0.023008,-0.011092,18
1784563960119000,-9.194941,-0.199516,3.402909,0.037892,-0.021863,-0.009559,19
1784563960129000,-9.171454,-0.199594,3.422740,0.039498,-0.021283,-0.009066,20
1784563960139000,-9.162360,-0.199695,3.442189,0.038266,-0.016713,-0.008572,21
1784563960149000,-9.138608,-0.209309,3.452387,0.038132,-0.012707,-0.008090,22
1784563960159000,-9.133986,-0.180553,3.457424,0.039179,-0.011558,-0.007595,23
1784563960169000,-9.129332,-0.170982,3.462387,0.040208,-0.010398,-0.008156,24
1784563960179000,-9.133888,-0.166135,3.452682,0.041753,-0.008098,-0.007683,25
1784563960189000,-9.143365,-0.161325,3.447646,0.042313,-0.008667,-0.007686,26
1784563960199000,-9.138218,-0.146841,3.433435,0.041730,-0.006964,-0.006640,27
1784563960209000,-9.161920,-0.166006,3.423126,0.040669,-0.006984,-0.005563,28
1784563960219000,-9.171522,-0.161224,3.422889,0.038431,-0.004709,-0.005552,29
1784563960229000,-9.185406,-0.165927,3.403294,0.037352,-0.004718,-0.005532,30
1784563960239000,-9.199813,-0.156357,3.402948,0.035743,-0.004736,-0.004975,31
1784563960249000,-9.195008,-0.161146,3.403057,0.036923,-0.007593,-0.004961,32
1784563960259000,-9.185547,-0.156363,3.408129,0.035914,-0.009327,-0.004393,33
1784563960269000,-9.199938,-0.156386,3.407746,0.034374,-0.011071,-0.003287,34
1784563960279000,-9.205126,-0.146888,3.422050,0.032316,-0.013392,-0.002164,35
1784563960289000,-9.195799,-0.137338,3.431939,0.031283,-0.013991,-0.000553,36
1784563960299000,-9.181067,-0.118044,3.418002,0.029761,-0.015747,0.001610,37
1784563960309000,-9.162037,-0.098858,3.423386,0.028752,-0.017481,0.002178,38
1784563960319000,-9.152677,-0.108494,3.433200,0.028764,-0.016370,0.005336,39
1784563960329000,-9.143607,-0.094206,3.452704,0.027543,-0.012367,0.005308,40
1784563960339000,-9.138810,-0.094199,3.452832,0.026322,-0.006686,0.008960,41
1784563960349000,-9.129076,-0.103747,3.448252,0.026786,-0.003834,0.010502,42
1784563960359000,-9.139059,-0.094257,3.462429,0.027685,0.000771,0.009372,43
1784563960369000,-9.133889,-0.094162,3.448162,0.025957,0.003629,0.008839,44
1784563960379000,-9.143008,-0.079672,3.428769,0.022617,0.007030,0.009913,45
1784563960389000,-9.142625,-0.084382,3.414356,0.022576,0.008177,0.009900,46
1784563960399000,-9.156775,-0.079550,3.404395,0.023182,0.007017,0.011489,47
1784563960409000,-9.166584,-0.098808,3.413661,0.025861,0.007050,0.010384,48
1784563960419000,-9.185257,-0.108314,3.393920,0.029100,0.006514,0.009276,49
1784563960430000,-9.189688,-0.103438,3.379416,0.033420,0.005426,0.007098,50
1784563960440000,-9.184898,-0.098634,3.379563,0.037711,0.004916,0.004385,51
1784563960450000,-9.189588,-0.089020,3.374674,0.041996,0.003852,0.000094,52
1784563960460000,-9.184891,-0.103431,3.379544,0.046291,0.002781,-0.003670,53
1784563960470000,-9.194867,-0.098736,3.393702,0.052774,0.000587,-0.007986,54
1784563960480000,-9.200047,-0.094034,3.407987,0.058187,-0.001621,-0.011755,55
1784563960490000,-9.214456,-0.084464,3.407641,0.061902,-0.001550,-0.015522,56
1784563960500000,-9.219253,-0.084472,3.407514,0.064050,-0.003205,-0.019769,57
1784563960510000,-9.224181,-0.079712,3.412203,0.062421,-0.004328,-0.022897,58
1784563960520000,-9.219652,-0.070170,3.421964,0.060809,-0.005463,-0.024969,59
1784563960530000,-9.209842,-0.050912,3.412697,0.059838,-0.007782,-0.023337,60
1784563960540000,-9.195868,-0.026995,3.427568,0.057277,-0.010692,-0.021142,61
1784563960550000,-9.191596,-0.012715,3.446944,0.056271,-0.012987,-0.021624,62
1784563960560000,-9.191712,-0.017540,3.451724,0.053607,-0.012471,-0.018411,63
1784563960570000,-9.177454,-0.012751,3.456924,0.052134,-0.015379,-0.015706,64
1784563960580000,-9.163438,-0.012815,3.471702,0.048385,-0.015426,-0.014054,65
1784563960590000,-9.154252,0.006298,3.486427,0.044096,-0.015478,-0.012391,66
1784563960600000,-9.163571,-0.008048,3.476519,0.037019,-0.012692,-0.010185,67
1784563960610000,-9.168052,0.025605,3.462126,0.030565,-0.012754,-0.009012,68
1784563960620000,-9.187099,0.016012,3.456780,0.025143,-0.012218,-0.009451,69
1784563960630000,-9.187123,0.030401,3.456836,0.021377,-0.012253,-0.008855,70
1784563960640000,-9.181803,0.016135,3.437715,0.016529,-0.011736,-0.007190,71
1784563960650000,-9.186725,0.016099,3.442385,0.010603,-0.011228,-0.005505,72
1784563960660000,-9.176855,0.001783,3.432988,0.005248,-0.011855,-0.004345,73
1784563960670000,-9.153502,0.006472,3.457637,0.001580,-0.014195,-0.002665,74
1784563960680000,-9.158391,-0.012750,3.462233,-0.003178,-0.015976,-0.000444,75
1784563960690000,-9.158666,0.001581,3.471885,-0.007968,-0.016617,0.002292,76
1784563960700000,-9.153827,-0.022393,3.471920,-0.011149,-0.017239,0.004471,77
1784563960710000,-9.168343,-0.022444,3.476335,-0.012239,-0.016681,0.005012,78
1784563960720000,-9.178169,-0.032110,3.485639,-0.012764,-0.016136,0.007129,79
1784563960730000,-9.158973,-0.036876,3.486132,-0.014402,-0.015575,0.007151,80
1784563960740000,-9.149487,-0.046483,3.491148,-0.014495,-0.012716,0.007646,81
1784563960750000,-9.144948,-0.041737,3.500891,-0.014553,-0.011558,0.006575,82
1784563960760000,-9.130416,-0.051278,3.496439,-0.014660,-0.009248,0.004963,83
1784563960770000,-9.135321,-0.060907,3.501072,-0.017435,-0.007538,0.003934,84
1784563960780000,-9.129909,-0.055959,3.477227,-0.018043,-0.005817,0.003395,85
1784563960790000,-9.139885,-0.051264,3.491385,-0.018125,-0.003524,0.003368,86
1784563960800000,-9.144656,-0.065660,3.491202,-0.015965,-0.004069,0.002279,87
1784563960810000,-9.144665,-0.060864,3.491220,-0.014895,-0.004054,0.001732,88
1784563960820000,-9.139718,-0.075216,3.486494,-0.014379,-0.002916,0.002765,89
1784563960830000,-9.140083,-0.080100,3.500870,-0.012262,-0.001753,0.002713,90
1784563960840000,-9.139843,-0.075245,3.491292,-0.011184,-0.001744,0.002694,91
1784563960850000,-9.149677,-0.080115,3.500615,-0.009061,-0.001703,0.000542,92
1784563960860000,-9.135287,-0.080092,3.500998,-0.008510,-0.002266,0.000010,93
1784563960870000,-9.144755,-0.080078,3.495944,-0.006423,-0.000524,-0.000577,94
1784563960880000,-9.150194,-0.070638,3.519845,-0.008632,0.001172,-0.000030,95
1784563960890000,-9.154741,-0.070587,3.510121,-0.010931,0.005167,-0.000039,96
1784563960900000,-9.173696,-0.060967,3.500050,-0.010951,0.005740,-0.000045,97
1784563960910000,-9.159171,-0.065712,3.495617,-0.012479,0.003429,0.000539,98
1784563960920000,-9.178359,-0.065741,3.495106,-0.012938,0.001132,0.000576,99
1784563960930000,-9.178635,-0.051411,3.504758,-0.014509,0.000529,0.002197,100
1784563960940000,-9.192734,-0.075356,3.494685,-0.015518,-0.001205,0.002765,101
1784563960950000,-9.192235,-0.075240,3.475492,-0.014309,-0.004641,0.003314,102
1784563960960000,-9.201205,-0.075110,3.451246,-0.013016,-0.010930,0.002840,103
1784563960970000,-9.200813,-0.084616,3.436814,-0.011227,-0.015508,0.003393,104
1784563960980000,-9.186264,-0.103749,3.432325,-0.008908,-0.020076,0.003409,105
1784563960990000,-9.176695,-0.089346,3.432636,-0.007217,-0.022350,0.002878,106
1784563961000000,-9.167118,-0.079738,3.432928,-0.008847,-0.021795,0.003429,107
1784563961010000,-9.157982,-0.103821,3.452284,-0.009427,-0.020653,0.003425,108
1784563961020000,-9.172879,-0.099163,3.471112,-0.011094,-0.019514,0.002912,109
1784563961030000,-9.182232,-0.094323,3.461279,-0.011094,-0.019514,0.002912,110
1784563961040000,-9.163644,-0.108827,3.485726,-0.011134,-0.018368,0.002899,111
1784563961050000,-9.139675,-0.099198,3.486402,-0.007806,-0.021202,0.002346,112
1784563961060000,-9.135145,-0.089656,3.496163,-0.007437,-0.016607,0.001754,113
1784563961070000,-9.116216,-0.084888,3.506289,-0.008655,-0.013165,0.000676,114
1784563961080000,-9.121163,-0.070535,3.511015,-0.009803,-0.011448,0.000147,115
1784563961090000,-9.125810,-0.084903,3.506033,-0.012601,-0.008604,0.000161,116
1784563961100000,-9.125462,-0.070427,3.491694,-0.013732,-0.006899,0.000689,117
1784563961110000,-9.144755,-0.080078,3.495944,-0.013755,-0.005765,0.001732,118
1784563961120000,-9.163427,-0.089584,3.476203,-0.013277,-0.004042,0.001703,119
1784563961130000,-9.168715,-0.094504,3.495250,-0.010522,-0.005178,0.002725,120
1784563961140000,-9.178009,-0.123239,3.485287,-0.009444,-0.005170,0.002706,121
1784563961150000,-9.173096,-0.118406,3.480635,-0.007785,-0.006303,0.002690,122
1784563961160000,-9.163394,-0.108769,3.476129,-0.008362,-0.005723,0.001636,123
1784563961170000,-9.163136,-0.113508,3.466514,-0.009482,-0.004585,0.001642,124
1784563961180000,-9.158497,-0.094344,3.471514,-0.009380,-0.007450,0.001675,125
1784563961190000,-9.154000,-0.065617,3.481350,-0.007171,-0.009147,0.001128,126
1784563961200000,-9.149677,-0.080115,3.500615,-0.006112,-0.008565,0.001102,127
1784563961210000,-9.154349,-0.080093,3.495689,-0.009963,-0.005747,0.002722,128
1784563961220000,-9.154267,-0.056083,3.490983,-0.010453,-0.006904,0.003273,129
1784563961230000,-9.145030,-0.065747,3.505597,-0.010392,-0.008623,0.003294,130
1784563961240000,-9.168633,-0.070494,3.490545,-0.009313,-0.008614,0.003274,131
1784563961250000,-9.183131,-0.080138,3.494922,-0.007594,-0.011467,0.003279,132
1784563961260000,-9.168698,-0.104097,3.495213,-0.004225,-0.015447,0.002740,133
1784563961270000,-9.173013,-0.094396,3.475929,-0.003686,-0.015443,0.002730,134
1784563961280000,-9.182965,-0.104090,3.490031,-0.001885,-0.020588,0.002761,135
1784563961290000,-9.168531,-0.128049,3.490322,0.000194,-0.018840,0.001646,136
1784563961300000,-9.149960,-0.132960,3.514805,0.002148,-0.013092,0.001540,137
1784563961310000,-9.168631,-0.142467,3.495064,0.005412,-0.013646,0.002017,138
1784563961320000,-9.149476,-0.123252,3.495650,0.007523,-0.013038,0.000387,139
1784563961330000,-9.120712,-0.113615,3.496453,0.008579,-0.011895,0.001411,140
1784563961340000,-9.111260,-0.104036,3.501544,0.010098,-0.009578,0.000298,141
1784563961350000,-9.130465,-0.094474,3.501070,0.010028,-0.007853,-0.000251,142
1784563961360000,-9.134797,-0.075180,3.481823,0.010559,-0.007843,-0.000789,143
1784563961370000,-9.134771,-0.089569,3.481768,0.011046,-0.006125,-0.000290,144
1784563961380000,-9.144222,-0.099147,3.476677,0.013206,-0.006669,-0.001379,145
1784563961390000,-9.158997,-0.094460,3.490707,0.013748,-0.007226,-0.002439,146
1784563961400000,-9.154440,-0.099307,3.500413,0.014766,-0.005499,-0.002478,147
1784563961410000,-9.154273,-0.123259,3.495522,0.015807,-0.004905,-0.003561,148
1784563961420000,-9.159320,-0.123325,3.504991,0.016265,-0.002609,-0.003598,149
1784563961430000,-9.159186,-0.128092,3.500174,0.016787,-0.002592,-0.004664,150
1784563961440000,-9.111451,-0.137668,3.511010,0.017347,-0.018633,-0.005005,151
1784563961451000,-9.145321,-0.113797,3.519806,0.018202,0.003151,-0.004760,152
1784563961461000,-9.144821,-0.113681,3.500612,0.017152,0.002564,-0.004206,153
1784563961471000,-9.135370,-0.104102,3.505703,0.017271,-0.000314,-0.003115,154
1784563961481000,-9.149527,-0.094474,3.495761,0.016749,-0.000330,-0.002049,155
1784563961491000,-9.145005,-0.080136,3.505541,0.015149,-0.000354,-0.000963,156
1784563961501000,-9.154582,-0.089743,3.505248,0.014084,0.000186,0.001164,157
1784563961511000,-9.144880,-0.080107,3.500742,0.011904,0.001304,0.002246,158
1784563961521000,-9.154474,-0.080122,3.500487,0.009654,0.004146,0.002779,159
1784563961531000,-9.159538,-0.070595,3.509993,0.006453,0.004097,0.004951,160
1784563961541000,-9.150077,-0.065813,3.515065,0.004974,0.000634,0.006077,161
1784563961551000,-9.145264,-0.075398,3.515156,0.001686,0.002322,0.006644,162
1784563961561000,-9.130749,-0.075346,3.510741,0.000637,0.001734,0.007198,163
1784563961571000,-9.130490,-0.080085,3.501126,-0.000984,0.002283,0.008277,164
1784563961581000,-9.140200,-0.084925,3.505650,-0.003161,0.002839,0.008309,165
1784563961591000,-9.144855,-0.094496,3.500687,-0.003182,0.003412,0.008302,166
1784563961601000,-9.154698,-0.094569,3.510028,-0.003185,0.003973,0.009353,167
1784563961611000,-9.168848,-0.089737,3.500067,-0.003124,0.002254,0.009373,168
1784563961621000,-9.163926,-0.089700,3.495396,-0.002524,0.000539,0.009383,169
1784563961631000,-9.164292,-0.094584,3.509772,0.001283,-0.000572,0.008801,170
1784563961641000,-9.169214,-0.094620,3.514443,0.005122,-0.002822,0.007703,171
1784563961651000,-9.164417,-0.094613,3.514570,0.008862,-0.002769,0.005522,172
1784563961661000,-9.159729,-0.104227,3.519459,0.009976,-0.004462,0.003937,173
1784563961671000,-9.164801,-0.089903,3.528984,0.013281,-0.007839,0.000749,174
1784563961681000,-9.140799,-0.099459,3.529585,0.011168,-0.025035,-0.000587,175
1784563961691000,-9.188820,-0.070755,3.528419,0.015184,-0.017527,-0.002866,176
1784563961701000,-9.169897,-0.061191,3.538564,0.012539,-0.003790,-0.002988,177
1784563961711000,-9.150851,-0.051598,3.543910,0.009330,-0.003834,-0.001345,178
1784563961721000,-9.160595,-0.037253,3.548509,0.009909,-0.004976,-0.001341,179
1784563961731000,-9.150876,-0.037209,3.543966,0.006135,-0.005005,-0.001274,180
1784563961741000,-9.145971,-0.027580,3.539333,0.004064,-0.006759,0.000371,181
1784563961751000,-9.131814,-0.037208,3.549275,0.003603,-0.008495,0.001457,182
1784563961761000,-9.117582,-0.018030,3.554531,0.000275,-0.005661,0.002010,183
1784563961771000,-9.107954,-0.037200,3.554712,-0.001897,-0.004549,0.003621,184
1784563961781000,-9.113001,-0.037266,3.564181,-0.003489,-0.004580,0.005235,185
1784563961791000,-9.103183,-0.022804,3.554896,-0.006768,-0.002898,0.006330,186
1784563961801000,-9.093822,-0.032440,3.564710,-0.009018,-0.000055,0.006863,187
1784563961811000,-9.107971,-0.027608,3.554749,-0.012344,0.002217,0.006366,188
1784563961821000,-9.103166,-0.032396,3.554859,-0.013979,0.002217,0.005338,189
1784563961831000,-9.131564,-0.037150,3.539679,-0.015040,0.002196,0.006414,190
1784563961841000,-9.136087,-0.051489,3.529899,-0.015513,0.001028,0.008023,191
1784563961851000,-9.154882,-0.061024,3.514956,-0.011648,-0.001241,0.008511,192
1784563961861000,-9.159804,-0.061060,3.519627,-0.008351,-0.002934,0.008473,193
1784563961871000,-9.159887,-0.085071,3.524332,-0.006713,-0.003495,0.008451,194
1784563961881000,-9.145505,-0.080252,3.524734,-0.006742,-0.002916,0.007915,195
1784563961891000,-9.126210,-0.070601,3.520484,-0.007910,-0.000626,0.007379,196
1784563961901000,-9.111960,-0.061015,3.525702,-0.010117,0.000509,0.006876,197
1784563961911000,-9.111978,-0.051422,3.525739,-0.010726,0.002230,0.006337,198
1784563961921000,-9.116674,-0.037012,3.520869,-0.011874,0.003947,0.005808,199
1784563961931000,-9.126286,-0.027434,3.520651,-0.009746,0.004543,0.005234,200
1784563961941000,-9.135730,-0.041809,3.515541,-0.007159,0.007435,0.004624,201
1784563961951000,-9.135880,-0.027449,3.520395,-0.005599,0.008606,0.003524,202
1784563961961000,-9.141025,-0.041933,3.534607,-0.006156,0.008614,0.002477,203
1784563961971000,-9.145698,-0.041911,3.529680,-0.006156,0.008614,0.002477,204
1784563961981000,-9.155274,-0.051518,3.529388,-0.007243,0.008611,0.001968,205
1784563961991000,-9.155158,-0.046693,3.524608,-0.006104,0.006901,0.001968,206
1784563962001000,-9.159697,-0.051439,3.514865,-0.005025,0.006909,0.001949,207
1784563962011000,-9.145663,-0.061096,3.529606,-0.003967,0.007491,0.001923,208
1784563962021000,-9.131166,-0.051452,3.525229,-0.004040,0.009777,0.002425,209
1784563962031000,-9.126002,-0.046561,3.510980,-0.004631,0.011486,0.002943,210
1784563962041000,-9.130816,-0.036976,3.510889,-0.006292,0.013181,0.004009,211
1784563962051000,-9.130583,-0.027326,3.501330,-0.007409,0.015435,0.006643,212
1784563962061000,-9.135380,-0.027333,3.501202,-0.007948,0.015431,0.006653,213
1784563962071000,-9.135272,-0.017712,3.496441,-0.006852,0.015427,0.007691,214
1784563962081000,-9.140184,-0.022545,3.501093,-0.006319,0.014876,0.006102,215
1784563962091000,-9.144848,-0.027319,3.496148,-0.005266,0.014903,0.004498,216
1784563962101000,-9.144474,-0.027232,3.481754,-0.007374,0.013733,0.005078,217
1784563962111000,-9.144290,-0.060777,3.476826,-0.007910,0.013168,0.004038,218
1784563962121000,-9.144082,-0.036738,3.467322,-0.007368,0.012611,0.002978,219
1784563962131000,-9.163520,-0.036826,3.476408,-0.005817,0.013788,0.001350,220
1784563962141000,-9.163370,-0.051185,3.471554,-0.002659,0.015544,0.000215,221
1784563962151000,-9.172564,-0.065502,3.456848,-0.002146,0.015566,-0.001380,222
1784563962161000,-9.177511,-0.051150,3.461574,-0.001018,0.014423,-0.000858,223
1784563962171000,-9.182325,-0.041565,3.461483,0.000063,0.013870,-0.001927,224
1784563962181000,-9.167809,-0.041513,3.457068,0.000623,0.013301,-0.001930,225
1784563962191000,-9.177403,-0.041528,3.456813,0.001153,0.013311,-0.002468,226
1784563962201000,-9.177403,-0.041528,3.456813,0.002731,0.014470,-0.002511,227
1784563962211000,-9.181952,-0.041478,3.447088,0.003751,0.015637,-0.003600,228
1784563962221000,-9.186756,-0.036689,3.446979,0.003171,0.016779,-0.003604,229
1784563962231000,-9.182136,-0.007933,3.452017,0.003719,0.016777,-0.003085,230
1784563962241000,-9.186666,-0.017475,3.442255,0.002078,0.017899,-0.002013,231
1784563962251000,-9.181860,-0.022264,3.442364,0.001580,0.016748,-0.001990,232
1784563962261000,-9.187022,-0.027154,3.456613,0.000542,0.015594,-0.001957,233
1784563962271000,-9.177437,-0.022343,3.456887,0.000611,0.013868,-0.001408,234
1784563962281000,-9.177437,-0.022343,3.456887,0.001110,0.015019,-0.001431,235
1784563962291000,-9.172881,-0.027190,3.466593,0.001661,0.014456,-0.001963,236
1784563962301000,-9.167693,-0.036688,3.452289,0.002139,0.016179,-0.001993,237
1784563962311000,-9.177553,-0.027168,3.461667,0.001530,0.017900,-0.002532,238
1784563962321000,-9.177339,-0.007925,3.452144,0.002038,0.019045,-0.002026,239
1784563962331000,-9.172631,-0.027132,3.456996,0.001527,0.018462,-0.001481,240
1784563962341000,-9.196633,-0.017577,3.456394,0.000420,0.019032,-0.001997,241
1784563962351000,-9.201805,-0.017671,3.470662,-0.000119,0.019028,-0.001988,242
1784563962361000,-9.205746,-0.007883,3.436983,-0.001668,0.017290,-0.001410,243
1784563962371000,-9.210409,-0.012658,3.432039,-0.003645,0.012676,-0.000261,244
1784563962381000,-9.220227,-0.027119,3.441324,-0.004619,0.009241,-0.001258,245
1784563962391000,-9.219977,-0.027061,3.431727,-0.004987,0.004646,-0.000666,246
1784563962401000,-9.229712,-0.017513,3.436307,-0.005457,0.002917,-0.000108,247
1784563962411000,-9.224416,-0.017389,3.417242,-0.004889,0.002342,0.000417,248
1784563962421000,-9.201048,-0.022293,3.441854,-0.003230,0.001209,0.000402,249
1784563962431000,-9.186365,-0.046194,3.432547,-0.002161,0.001223,-0.000146,250
1784563962441000,-9.177030,-0.041441,3.442418,-0.002169,0.001229,-0.000674,251
1784563962451000,-9.162780,-0.031855,3.447636,-0.002729,0.001798,-0.000671,252
1784563962461000,-9.157884,-0.017430,3.443022,-0.003288,0.002367,-0.000668,253
1784563962471000,-9.152953,-0.022190,3.438333,-0.004927,0.002927,-0.000646,254
1784563962482000,-9.162681,-0.017438,3.442894,-0.005996,0.002913,-0.000098,255
1784563962491000,-9.167495,-0.007853,3.442803,-0.006547,0.003476,0.000433,0
1784563962502000,-9.176822,-0.017402,3.432914,-0.006069,0.005199,0.000403,1
1784563962512000,-9.176697,-0.017373,3.428116,-0.005011,0.005781,0.000377,2
1784563962522000,-9.172167,-0.007831,3.437877,-0.004457,0.004657,-0.001205,3
1784563962532000,-9.157375,-0.022111,3.423810,-0.003393,0.005793,0.000348,4
1784563962542000,-9.171758,-0.026929,3.423409,-0.004460,0.005218,-0.000154,5
1784563962552000,-9.167327,-0.031805,3.437912,-0.006683,0.006365,-0.001715,6
1784563962562000,-9.181843,-0.031856,3.442327,-0.008371,0.008077,-0.002234,7
1784563962572000,-9.176662,-0.036558,3.428042,-0.009974,0.006936,-0.003777,8
1784563962582000,-9.167202,-0.031776,3.433114,-0.012198,0.008083,-0.005338,9
1784563962592000,-9.157599,-0.036557,3.433351,-0.013355,0.009806,-0.006396,10
1784563962602000,-9.157708,-0.046179,3.438112,-0.016640,0.010932,-0.006880,11
1784563962612000,-9.148355,-0.051018,3.447945,-0.021595,0.013760,-0.006826,12
1784563962622000,-9.158207,-0.046295,3.457305,-0.024900,0.015459,-0.007317,13
1784563962632000,-9.167909,-0.055931,3.461811,-0.029823,0.017146,-0.007779,14
1784563962642000,-9.163162,-0.027146,3.462050,-0.035807,0.018813,-0.007165,15
1784563962652000,-9.182225,-0.027147,3.456741,-0.043308,0.017602,-0.006488,16
1784563962662000,-9.186790,-0.017504,3.447053,-0.052426,0.016377,-0.005782,17
1784563962672000,-9.172417,-0.007889,3.447474,-0.059860,0.014002,-0.003506,18
1784563962682000,-9.158092,-0.041469,3.452526,-0.065711,0.011663,-0.003373,19
1784563962692000,-9.167775,-0.060698,3.456994,-0.069799,0.006441,-0.000593,20
1784563962702000,-9.181792,-0.060634,3.442216,-0.075146,0.005808,0.001096,21
1784563962712000,-9.195758,-0.089347,3.427327,-0.080356,0.002286,0.004932,22
1784563962722000,-9.209999,-0.103729,3.422090,-0.085056,-0.000654,0.008223,23
1784563962732000,-9.209517,-0.094020,3.402934,-0.085956,-0.003581,0.013032,24
1784563962742000,-9.185764,-0.103634,3.413132,-0.085222,-0.007624,0.016241,25
1784563962752000,-9.176495,-0.132483,3.427670,-0.080786,-0.009351,0.019883,26
1784563962762000,-9.204735,-0.156393,3.407618,-0.075571,-0.003595,0.021305,27
1784563962772000,-9.194832,-0.189894,3.398147,-0.072413,-0.000161,0.023849,28
1784563962782000,-9.190585,-0.161225,3.417579,-0.067960,-0.003578,0.024870,29
1784563962792000,-9.190960,-0.161312,3.431974,-0.065936,-0.001233,0.021633,30
1784563962802000,-9.176677,-0.170911,3.437119,-0.066571,0.000506,0.019509,31
1784563962812000,-9.157272,-0.151638,3.428107,-0.066150,0.003388,0.018408,32
1784563962822000,-9.137744,-0.132337,3.414298,-0.064193,0.008574,0.017252,33
1784563962832000,-9.138019,-0.118006,3.423950,-0.059496,0.013752,0.018691,34
1784563962842000,-9.156957,-0.117978,3.413842,-0.054225,0.017233,0.018554,35
1784563962852000,-9.176537,-0.108502,3.427763,-0.052164,0.020671,0.020061,36
1784563962862000,-9.205060,-0.113285,3.417382,-0.051106,0.021253,0.020035,37
1784563962872000,-9.209840,-0.122885,3.417217,-0.049459,0.020686,0.020541,38
1784563962882000,-9.199997,-0.122812,3.407876,-0.048288,0.017835,0.020027,39
1784563962892000,-9.205143,-0.137295,3.422087,-0.044420,0.015006,0.019464,40
1784563962902000,-9.190610,-0.146836,3.417635,-0.039433,0.011038,0.018896,41
1784563962912000,-9.194883,-0.161117,3.398259,-0.034159,0.013958,0.017709,42
1784563962922000,-9.175803,-0.170708,3.403531,-0.025710,0.018622,0.016444,43
1784563962932000,-9.151843,-0.156282,3.404225,-0.018946,0.024438,0.013609,44
1784563962942000,-9.156757,-0.161115,3.408877,-0.011625,0.030246,0.011821,45
1784563962952000,-9.165859,-0.156218,3.389447,-0.007012,0.036600,0.010604,46
1784563962962000,-9.170399,-0.160963,3.379704,-0.002222,0.037241,0.007868,47
1784563962972000,-9.185465,-0.132353,3.403424,0.004273,0.036158,0.006708,48
1784563962982000,-9.204794,-0.122819,3.407748,0.008048,0.034510,0.002962,49
1784563962992000,-9.233101,-0.108359,3.387845,0.007535,0.032810,0.000877,50
1784563963002000,-9.241855,-0.088986,3.354076,0.008193,0.028259,-0.001721,51
1784563963012000,-9.222908,-0.093811,3.364164,0.008860,0.023702,-0.003791,52
1784563963022000,-9.232252,-0.093768,3.354312,0.013282,0.019749,-0.005935,53
1784563963032000,-9.227314,-0.103324,3.349605,0.017625,0.017526,-0.009156,54
1784563963042000,-9.222866,-0.117792,3.364072,0.022986,0.017031,-0.012417,55
1784563963052000,-9.208334,-0.127333,3.359620,0.026750,0.015950,-0.015642,56
1784563963062000,-9.208426,-0.146547,3.364343,0.027275,0.015405,-0.017759,57
1784563963072000,-9.199080,-0.146590,3.374196,0.026663,0.016009,-0.020927,58
1784563963082000,-9.218162,-0.136999,3.368923,0.023944,0.015445,-0.023514,59
1784563963092000,-9.208243,-0.108119,3.354896,0.022848,0.015448,-0.024552,60
1784563963102000,-9.213049,-0.103330,3.354786,0.020772,0.013139,-0.024487,61
1784563963112000,-9.203355,-0.088898,3.350299,0.019209,0.012529,-0.022337,62
1784563963122000,-9.227264,-0.060128,3.344974,0.017118,0.011348,-0.020700,63
1784563963132000,-9.222309,-0.079277,3.340229,0.015066,0.009582,-0.017998,64
1784563963142000,-9.222576,-0.069742,3.349862,0.012482,0.007806,-0.014759,65
1784563963152000,-9.222542,-0.088927,3.349788,0.010420,0.006046,-0.012586,66
1784563963162000,-9.218138,-0.079414,3.364348,0.007796,0.005416,-0.009360,67
1784563963172000,-9.198950,-0.079385,3.364859,0.005645,0.005955,-0.007743,68
1784563963182000,-9.199066,-0.084210,3.369639,0.004537,0.008203,-0.004580,69
1784563963192000,-9.198924,-0.093773,3.364803,0.003922,0.011046,-0.003018,70
1784563963202000,-9.189330,-0.093759,3.365059,0.001182,0.012732,-0.001933,71
1784563963212000,-9.193494,-0.098417,3.340921,0.001580,0.016748,-0.001990,72
1784563963222000,-9.207603,-0.117567,3.330867,0.002058,0.018472,-0.002020,73
1784563963232000,-9.212523,-0.117603,3.335537,0.003084,0.020193,-0.001531,74
1784563963242000,-9.226772,-0.127189,3.330319,0.003035,0.021346,-0.002072,75
1784563963252000,-9.240897,-0.136746,3.320302,0.004624,0.021937,-0.002637,76
1784563963262000,-9.216905,-0.141505,3.320922,0.005760,0.020788,-0.001585,77
1784563963272000,-9.226531,-0.122335,3.320741,0.007999,0.018512,-0.001597,78
1784563963282000,-9.216955,-0.112727,3.321034,0.009634,0.018513,-0.000569,79
1784563963292000,-9.207211,-0.127072,3.316435,0.009086,0.018515,-0.001088,80
1784563963302000,-9.221519,-0.103084,3.311347,0.009634,0.018513,-0.000569,81
1784563963312000,-9.221269,-0.103026,3.301750,0.009008,0.020246,-0.002165,82
1784563963322000,-9.216473,-0.103019,3.301878,0.010025,0.021974,-0.002205,83
1784563963332000,-9.221359,-0.122240,3.306474,0.012725,0.021434,-0.003303,84
1784563963342000,-9.226381,-0.136695,3.315887,0.012728,0.020873,-0.004353,85
1784563963352000,-9.245569,-0.136724,3.315376,0.013841,0.019180,-0.005938,86
1784563963362000,-9.235975,-0.136709,3.315632,0.015511,0.017479,-0.006475,87
1784563963372000,-9.231553,-0.136789,3.330154,0.013908,0.016338,-0.008018,88
1784563963382000,-9.231070,-0.127080,3.310998,0.012261,0.016904,-0.008525,89
1784563963392000,-9.230937,-0.131848,3.306182,0.012244,0.016916,-0.009582,90
1784563963402000,-9.226048,-0.112626,3.301585,0.010664,0.016319,-0.008489,91
1784563963412000,-9.230988,-0.103070,3.306293,0.010568,0.018062,-0.010623,92
1784563963422000,-9.221535,-0.093492,3.311384,0.010038,0.018051,-0.010085,93
1784563963432000,-9.230380,-0.093333,3.282339,0.009600,0.015182,-0.010042,94
1784563963442000,-9.235684,-0.088660,3.301423,0.008634,0.011741,-0.010511,95
1784563963452000,-9.235667,-0.098252,3.301385,0.006584,0.009413,-0.008860,96
1784563963462000,-9.245021,-0.093413,3.291552,0.002862,0.007670,-0.009301,97
1784563963472000,-9.245245,-0.107860,3.301093,-0.001406,0.007046,-0.007631,98
1784563963482000,-9.244987,-0.112598,3.291478,-0.004056,0.006433,-0.005991,99
1784563963492000,-9.250167,-0.107896,3.305763,-0.007834,0.006965,-0.004873,100
1784563963503000,-9.250016,-0.122256,3.300909,-0.008429,0.009235,-0.003305,101
1784563963513000,-9.245228,-0.117452,3.301056,-0.009490,0.009215,-0.002228,102
1784563963523000,-9.235867,-0.127088,3.310871,-0.011772,0.013198,-0.001180,103
1784563963533000,-9.226165,-0.117452,3.306365,-0.013912,0.013169,-0.000084,104
1784563963543000,-9.221519,-0.103084,3.311347,-0.017144,0.012582,-0.001077,105
1784563963553000,-9.221003,-0.112561,3.292117,-0.018185,0.011989,0.000006,106
1784563963563000,-9.201964,-0.098171,3.297481,-0.018693,0.010844,-0.000499,107
1784563963573000,-9.197036,-0.102931,3.292792,-0.018696,0.011405,0.000551,108
1784563963583000,-9.206212,-0.126840,3.278049,-0.021534,0.015396,0.000552,109
1784563963593000,-9.191830,-0.122022,3.278451,-0.023117,0.015359,0.002695,110
1784563963603000,-9.182336,-0.136425,3.283449,-0.023613,0.015325,0.005347,111
1784563963613000,-9.196959,-0.146097,3.292625,-0.023735,0.018764,0.005307,112
1784563963623000,-9.216130,-0.155720,3.292077,-0.022219,0.021642,0.005244,113
1784563963633000,-9.254130,-0.155692,3.276660,-0.020656,0.023929,0.006774,114
1784563963643000,-9.268372,-0.170074,3.271424,-0.020073,0.023904,0.009407,115
1784563963653000,-9.282247,-0.179573,3.251810,-0.017806,0.021049,0.009931,116
1784563963663000,-9.263084,-0.165155,3.252377,-0.016629,0.018754,0.010995,117
1784563963673000,-9.243546,-0.150649,3.238549,-0.012266,0.017636,0.011460,118
1784563963683000,-9.215015,-0.150663,3.248912,-0.012376,0.020507,0.010898,119
1784563963693000,-9.215264,-0.150721,3.258508,-0.011935,0.022815,0.009804,120
1784563963703000,-9.215281,-0.141128,3.258545,-0.009871,0.025692,0.010261,121
1784563963713000,-9.215299,-0.131536,3.258582,-0.010587,0.029723,0.008109,122
1784563963723000,-9.205581,-0.131492,3.254040,-0.009091,0.033174,0.008040,123
1784563963733000,-9.205106,-0.116987,3.234902,-0.008601,0.034331,0.007488,124
1784563963743000,-9.229056,-0.136209,3.234189,-0.006504,0.036067,0.007430,125
1784563963753000,-9.252774,-0.145781,3.223917,-0.005495,0.037800,0.006862,126
1784563963763000,-9.271605,-0.136131,3.209049,-0.004350,0.036645,0.008441,127
1784563963773000,-9.285872,-0.136125,3.203867,-0.002660,0.034371,0.007911,128
1784563963783000,-9.295448,-0.145732,3.203574,-0.003628,0.031491,0.008492,129
1784563963793000,-9.300004,-0.140885,3.193869,-0.002477,0.029214,0.007971,130
1784563963803000,-9.271497,-0.126510,3.204287,-0.001338,0.027503,0.007972,131
1784563963813000,-9.266575,-0.126473,3.199617,0.000364,0.024662,0.006920,132
1784563963823000,-9.262161,-0.121757,3.214158,0.001933,0.025827,0.006349,133
1784563963833000,-9.271273,-0.112063,3.194746,0.001344,0.026975,0.005817,134
1784563963843000,-9.261962,-0.092921,3.204673,0.000150,0.029282,0.003695,135
1784563963853000,-9.281399,-0.093009,3.213758,0.000185,0.027581,0.002130,136
1784563963863000,-9.280650,-0.092835,3.184969,0.000205,0.027008,0.002137,137
1784563963873000,-9.290011,-0.083199,3.175154,-0.000279,0.024729,0.000588,138
1784563963883000,-9.270524,-0.111889,3.165957,0.000362,0.021868,0.000612,139
1784563963893000,-9.266200,-0.126386,3.185222,0.004305,0.016190,-0.001503,140
1784563963903000,-9.280958,-0.131292,3.199215,0.004850,0.015072,-0.003613,141
1784563963913000,-9.280716,-0.126438,3.189637,0.006399,0.016810,-0.004191,142
1784563963923000,-9.290651,-0.145724,3.203702,0.008072,0.014548,-0.005778,143
1784563963933000,-9.299879,-0.140856,3.189070,0.009182,0.013417,-0.006312,144
1784563963943000,-9.304958,-0.121737,3.198613,0.009704,0.013433,-0.007379,145
1784563963953000,-9.299680,-0.112021,3.179585,0.010814,0.012301,-0.007913,146
1784563963963000,-9.290228,-0.102442,3.184676,0.010397,0.008858,-0.007863,147
1784563963973000,-9.290369,-0.092879,3.189512,0.009971,0.005421,-0.008342,148
1784563963983000,-9.295175,-0.088090,3.189402,0.008994,0.002547,-0.008289,149
1784563963993000,-9.271181,-0.092849,3.190022,0.008022,0.000229,-0.006658,150
1784563964003000,-9.270931,-0.092791,3.180426,0.008634,-0.002053,-0.007169,151
1784563964013000,-9.261571,-0.102427,3.190241,0.009742,-0.002624,-0.006653,152
1784563964023000,-9.261579,-0.097630,3.190259,0.008660,-0.002071,-0.005583,153
1784563964033000,-9.256899,-0.102448,3.195167,0.007071,-0.002663,-0.005019,154
1784563964043000,-9.261795,-0.116873,3.199782,0.007071,-0.002663,-0.005019,155
1784563964053000,-9.256765,-0.107215,3.190350,0.005450,-0.002114,-0.003940,156
1784563964063000,-9.247288,-0.112026,3.195385,0.003699,0.001879,-0.003430,157
1784563964073000,-9.247080,-0.087986,3.185881,0.002647,0.001852,-0.001825,158
1784563964083000,-9.261971,-0.088125,3.204691,0.002673,0.001834,-0.000239,159
1784563964093000,-9.266759,-0.092928,3.204545,0.004847,0.001840,0.000779,160
1784563964103000,-9.271440,-0.088111,3.199637,0.005375,0.002411,0.001291,161
1784563964113000,-9.261953,-0.097717,3.204654,0.003644,0.005831,0.001808,162
1784563964123000,-9.271656,-0.107354,3.209160,0.003073,0.006967,0.002333,163
1784563964133000,-9.266368,-0.102434,3.190113,0.001913,0.009251,0.002325,164
1784563964143000,-9.276087,-0.102478,3.194656,0.001345,0.009825,0.001800,165
1784563964153000,-9.266393,-0.088045,3.190169,0.000826,0.009248,0.001816,166
1784563964163000,-9.261837,-0.092892,3.199874,0.000318,0.008104,0.001311,167
1784563964173000,-9.271198,-0.083256,3.190060,-0.001827,0.007519,0.000828,168
1784563964183000,-9.280276,-0.092748,3.170574,-0.002877,0.006932,0.001382,169
1784563964193000,-9.289994,-0.092792,3.175117,-0.005002,0.005775,0.000906,170
1784563964203000,-9.280509,-0.102398,3.180133,-0.006040,0.004620,0.000938,171
1784563964213000,-9.280392,-0.097573,3.175354,-0.005440,0.002905,0.000949,172
1784563964223000,-9.280358,-0.116758,3.175280,-0.006429,0.000598,0.001524,173
1784563964233000,-9.271156,-0.107238,3.189967,-0.006948,0.000021,0.001540,174
1784563964243000,-9.266484,-0.107259,3.194893,-0.005750,-0.002848,0.002611,175
1784563964253000,-9.271290,-0.102470,3.194784,-0.004669,-0.003401,0.001542,176
1784563964263000,-9.266342,-0.116823,3.190058,-0.002433,-0.005115,0.002580,177
1784563964273000,-9.271398,-0.112092,3.199545,-0.002468,-0.005091,0.000466,178
1784563964283000,-9.266859,-0.107346,3.209288,-0.000902,-0.003365,0.000946,179
1784563964293000,-9.266859,-0.107346,3.209288,0.000695,-0.002779,0.000910,180
1784563964303000,-9.261812,-0.107281,3.199819,0.001165,-0.001050,0.000352,181
1784563964313000,-9.256782,-0.097623,3.190387,0.001600,0.002381,0.001359,182
1784563964323000,-9.252368,-0.092906,3.204928,0.002095,0.004093,0.002386,183
1784563964333000,-9.252260,-0.083285,3.200167,0.001066,0.002932,0.002947,184
1784563964343000,-9.256807,-0.083234,3.190443,0.001115,0.001780,0.003489,185
1784563964353000,-9.266776,-0.083336,3.204582,0.001101,0.002908,0.005061,186
1784563964363000,-9.262146,-0.059376,3.209601,0.000051,0.002321,0.005616,187
1784563964373000,-9.266710,-0.049733,3.199914,-0.000468,0.001744,0.005632,188
1784563964383000,-9.271357,-0.064100,3.194932,-0.002645,0.002300,0.005664,189
1784563964393000,-9.271240,-0.059275,3.190152,-0.005394,0.003992,0.006220,190
1784563964403000,-9.271474,-0.068926,3.199712,-0.007563,0.004542,0.006781,191
1784563964413000,-9.266302,-0.068831,3.185445,-0.009157,0.005073,0.009445,192
1784563964423000,-9.266143,-0.087987,3.180572,-0.009137,0.004500,0.009452,193
1784563964433000,-9.266359,-0.107230,3.190095,-0.009685,0.004501,0.008933,194
1784563964443000,-9.261437,-0.107194,3.185424,-0.008603,0.003949,0.007864,195
1784563964453000,-9.276186,-0.116896,3.199398,-0.009177,0.003968,0.005759,196
1784563964463000,-9.261420,-0.116786,3.185387,-0.010256,0.003960,0.005779,197
1784563964473000,-9.261786,-0.121670,3.199763,-0.009722,0.003409,0.004190,198
1784563964483000,-9.251943,-0.121597,3.190422,-0.007612,0.004016,0.002559,199
1784563964493000,-9.261295,-0.116757,3.180589,-0.003341,0.004080,-0.000160,200
1784563964503000,-9.266118,-0.102376,3.180516,0.000487,0.002396,-0.000736,201
1784563964513000,-9.285181,-0.102377,3.175207,-0.000140,0.004129,-0.002332,202
1784563964524000,-9.285164,-0.111969,3.175170,-0.001264,0.004712,-0.003905,203
1784563964533000,-9.275712,-0.102391,3.180261,-0.001259,0.003589,-0.006005,204
1784563964544000,-9.299713,-0.092836,3.179660,-0.001163,0.000169,-0.007551,205
1784563964554000,-9.290119,-0.092821,3.179915,-0.000554,-0.001552,-0.007012,206
1784563964564000,-9.299954,-0.097690,3.189238,0.001122,-0.002698,-0.005970,207
1784563964574000,-9.314087,-0.102450,3.179239,0.000666,-0.003878,-0.003305,208
1784563964584000,-9.323415,-0.112000,3.169350,0.004012,-0.006724,-0.002800,209
1784563964594000,-9.304351,-0.111999,3.174659,0.007958,-0.011285,-0.002286,210
1784563964604000,-9.280092,-0.126293,3.165646,0.009657,-0.013564,-0.002288,211
1784563964614000,-9.280109,-0.116700,3.165683,0.010237,-0.014706,-0.002284,212
1784563964624000,-9.251727,-0.102354,3.180900,0.008068,-0.014156,-0.001724,213
1784563964634000,-9.247205,-0.088015,3.190680,0.006970,-0.013591,-0.001711,214
1784563964644000,-9.246723,-0.078307,3.171524,0.004743,-0.011883,-0.002221,215
1784563964654000,-9.256342,-0.063933,3.171324,0.003572,-0.009032,-0.001707,216
1784563964664000,-9.265811,-0.063919,3.166270,0.005071,-0.006142,-0.002826,217
1784563964674000,-9.261131,-0.068737,3.171178,0.007271,-0.007833,-0.003902,218
1784563964684000,-9.270700,-0.083140,3.170866,0.008399,-0.008976,-0.003379,219
1784563964694000,-9.304269,-0.087989,3.169954,0.007349,-0.009564,-0.002825,220
1784563964704000,-9.299588,-0.092807,3.174861,0.005213,-0.010154,-0.002779,221
1784563964714000,-9.304277,-0.083193,3.169972,0.003641,-0.012435,-0.004838,222
1784563964724000,-9.299572,-0.102399,3.174824,0.003726,-0.015289,-0.005861,223
1784563964734000,-9.289961,-0.111977,3.175043,0.005445,-0.018141,-0.005856,224
1784563964744000,-9.270997,-0.126394,3.185094,0.006506,-0.018121,-0.006933,225
1784563964754000,-9.270889,-0.116772,3.180333,0.007066,-0.018690,-0.006935,226
1784563964764000,-9.270790,-0.102354,3.175591,0.007564,-0.017539,-0.006959,227
1784563964774000,-9.261462,-0.092805,3.185480,0.008124,-0.018108,-0.006961,228
1784563964784000,-9.265885,-0.092726,3.170957,0.009811,-0.019821,-0.006442,229
1784563964794000,-9.255800,-0.087798,3.152038,0.008307,-0.023266,-0.006901,230
1784563964804000,-9.260722,-0.087835,3.156709,0.006396,-0.029043,-0.004153,231
1784563964814000,-9.270566,-0.087908,3.166050,0.007637,-0.033620,-0.004118,232
1784563964824000,-9.284974,-0.078338,3.165704,0.007672,-0.035321,-0.005684,233
1784563964834000,-9.299730,-0.083243,3.179697,0.005477,-0.034753,-0.006709,234
1784563964844000,-9.300338,-0.092981,3.203651,0.004326,-0.032475,-0.006188,235
1784563964854000,-9.286171,-0.107405,3.213575,0.005425,-0.033040,-0.006201,236
1784563964864000,-9.281374,-0.107398,3.213702,0.007602,-0.033596,-0.006232,237
1784563964874000,-9.267182,-0.136211,3.223571,0.011368,-0.033560,-0.006828,238
1784563964884000,-9.248260,-0.126646,3.233715,0.014601,-0.032974,-0.005836,239
1784563964894000,-9.258347,-0.131574,3.252634,0.017808,-0.032369,-0.006429,240
1784563964904000,-9.248253,-0.131443,3.233697,0.019428,-0.031240,-0.003829,241
1784563964914000,-9.229056,-0.136209,3.234189,0.021533,-0.029510,-0.003359,242
1784563964924000,-9.224650,-0.126696,3.248749,0.021516,-0.029498,-0.004416,243
1784563964934000,-9.248877,-0.131588,3.257688,0.023632,-0.028335,-0.004468,244
1784563964944000,-9.229722,-0.112373,3.258273,0.024076,-0.024910,-0.002933,245
1784563964954000,-9.234270,-0.112322,3.248549,0.024493,-0.021467,-0.002983,246
1784563964964000,-9.224668,-0.117104,3.248786,0.024401,-0.018607,-0.002488,247
1784563964974000,-9.224069,-0.102570,3.224851,0.023861,-0.018612,-0.002478,248
1784563964984000,-9.233296,-0.097702,3.210219,0.020060,-0.018624,-0.003996,249
1784563964994000,-9.238211,-0.102534,3.214871,0.015250,-0.020369,-0.004946,250
1784563965004000,-9.257664,-0.093030,3.223994,0.012015,-0.020395,-0.004888,251
1784563965014000,-9.258039,-0.093116,3.238388,0.008289,-0.021576,-0.004279,252
1784563965024000,-9.272429,-0.093139,3.238005,0.006230,-0.023898,-0.003156,253
1784563965034000,-9.263177,-0.112396,3.252581,0.005839,-0.027358,-0.001521,254
1784563965044000,-9.267798,-0.141152,3.247544,0.004813,-0.029080,-0.002010,255
1784563965054000,-9.254156,-0.141304,3.276716,0.002705,-0.030249,-0.001429,0
1784563965064000,-9.240131,-0.146164,3.291476,0.002644,-0.028530,-0.001450,1
1784563965074000,-9.245028,-0.160590,3.296090,0.001974,-0.025090,-0.002009,2
1784563965084000,-9.230513,-0.160538,3.291676,0.001403,-0.023954,-0.001484,3
1784563965094000,-9.206868,-0.179773,3.306635,0.002873,-0.020485,-0.003139,4
1784563965104000,-9.197175,-0.165340,3.302147,0.004378,-0.017039,-0.002679,5
1784563965114000,-9.187448,-0.170093,3.297586,0.005433,-0.015896,-0.001655,6
1784563965124000,-9.183025,-0.170172,3.312109,0.006949,-0.013018,-0.001718,7
1784563965134000,-9.182809,-0.150929,3.302586,0.005787,-0.010173,-0.000675,8
1784563965144000,-9.192163,-0.146090,3.292753,0.005642,-0.005600,0.000328,9
1784563965154000,-9.196968,-0.141301,3.292644,0.006100,-0.003304,0.000292,10
1784563965164000,-9.215815,-0.122059,3.277812,0.006607,-0.002159,0.000797,11
1784563965174000,-9.235110,-0.131710,3.282063,0.007596,0.000147,0.000223,12
1784563965184000,-9.239857,-0.160495,3.281823,0.007564,0.001288,0.000738,13
1784563965194000,-9.235192,-0.155721,3.286768,0.006453,0.002419,0.001272,14
1784563965204000,-9.221184,-0.150989,3.301564,0.004267,0.002981,0.000775,15
1784563965214000,-9.207044,-0.151025,3.311544,0.005297,0.004142,0.000214,16
1784563965224000,-9.206811,-0.141374,3.301985,0.009063,0.004178,-0.000382,17
1784563965234000,-9.196935,-0.160486,3.292570,0.010718,0.003605,0.000653,18
1784563965244000,-9.201955,-0.174940,3.301983,0.011774,0.004748,0.001677,19
1784563965254000,-9.221659,-0.165494,3.320702,0.012771,0.007049,0.001631,20
1784563965264000,-9.221275,-0.170203,3.306289,0.012678,0.009909,0.002126,21
1784563965274000,-9.235649,-0.179818,3.305868,0.015328,0.010521,0.000485,22
1784563965284000,-9.235691,-0.155836,3.305961,0.016990,0.008826,-0.000580,23
1784563965294000,-9.250207,-0.155888,3.310376,0.019706,0.008274,-0.000622,24
1784563965304000,-9.240647,-0.136688,3.310706,0.020794,0.008277,-0.000113,25
1784563965314000,-9.245203,-0.131841,3.301000,0.019727,0.007701,-0.000615,26
1784563965324000,-9.239915,-0.126921,3.281953,0.018642,0.008815,0.001505,27
1784563965334000,-9.230330,-0.122110,3.282227,0.017598,0.008783,0.003638,28
1784563965344000,-9.244720,-0.122133,3.281844,0.016566,0.008183,0.005250,29
1784563965354000,-9.230463,-0.117343,3.287044,0.018213,0.007617,0.005756,30
1784563965364000,-9.230597,-0.112576,3.291861,0.016630,0.007581,0.007899,31
1784563965374000,-9.230597,-0.112576,3.291861,0.016684,0.006984,0.010019,32
1784563965384000,-9.240083,-0.102969,3.286844,0.015020,0.007562,0.008456,33
1784563965394000,-9.230371,-0.098129,3.282320,0.013991,0.006401,0.009017,34
1784563965404000,-9.235286,-0.102962,3.286972,0.015087,0.006398,0.010055,35
1784563965414000,-9.239557,-0.117242,3.267596,0.014487,0.008113,0.010045,36
1784563965424000,-9.229739,-0.102780,3.258311,0.013402,0.009227,0.012164,37
1784563965434000,-9.215349,-0.102758,3.258694,0.016670,0.008112,0.011591,38
1784563965444000,-9.206496,-0.107713,3.287720,0.018262,0.008143,0.009977,39
1784563965454000,-9.244854,-0.117365,3.286661,0.018824,0.007013,0.008924,40
1784563965464000,-9.220286,-0.093202,3.263401,0.018152,-0.004458,0.009077,41
1784563965474000,-9.264193,-0.103035,3.291004,0.019740,0.027077,0.009188,42
1784563965484000,-9.263576,-0.098094,3.267031,0.018276,0.022486,0.008742,43
1784563965494000,-9.272821,-0.083633,3.252437,0.018955,0.019040,0.009830,44
1784563965504000,-9.268098,-0.112432,3.257252,0.024521,0.013930,0.009266,45
1784563965514000,-9.267608,-0.107520,3.238077,0.027293,0.011104,0.007666,46
1784563965524000,-9.262427,-0.112222,3.223792,0.026798,0.009392,0.006638,47
1784563965534000,-9.257630,-0.112215,3.223919,0.026809,0.008825,0.006117,48
1784563965544000,-9.262569,-0.102658,3.228627,0.026818,0.007142,0.002966,49
1784563965555000,-9.267400,-0.083481,3.228573,0.025815,0.004285,0.001433,50
1784563965565000,-9.252910,-0.069041,3.224214,0.023733,0.001421,-0.000080,51
1784563965575000,-9.253051,-0.059477,3.229049,0.022171,-0.000866,-0.001610,52
1784563965585000,-9.257882,-0.040300,3.228996,0.020539,-0.001428,-0.003688,53
1784563965595000,-9.244099,-0.050015,3.253333,0.017883,-0.002596,-0.003627,54
1784563965605000,-9.239319,-0.040415,3.253498,0.016720,0.000249,-0.002584,55
1784563965615000,-9.258614,-0.050066,3.257748,0.014601,-0.000353,-0.001482,56
1784563965625000,-9.258855,-0.054920,3.267326,0.013017,-0.000389,0.000661,57
1784563965635000,-9.239809,-0.045327,3.272672,0.010292,0.000169,0.000174,58
1784563965645000,-9.254058,-0.054913,3.267454,0.006546,-0.000440,0.000777,59
1784563965655000,-9.258605,-0.054862,3.257730,0.004406,-0.000469,0.001873,60
1784563965665000,-9.253417,-0.064360,3.243426,0.003400,-0.002764,0.001390,61
1784563965675000,-9.249236,-0.069294,3.267526,0.003403,-0.001647,0.004019,62
1784563965685000,-9.248986,-0.069236,3.257930,0.002342,-0.001668,0.005096,63
1784563965695000,-9.239026,-0.064338,3.243809,0.001150,0.001756,0.005603,64
1784563965705000,-9.229832,-0.050021,3.258515,-0.001599,0.003448,0.006160,65
1784563965715000,-9.215609,-0.026047,3.263789,-0.003301,0.006289,0.007212,66
1784563965725000,-9.210704,-0.016418,3.259156,-0.006061,0.008549,0.008290,67
1784563965735000,-9.267332,-0.121851,3.228425,0.001643,0.069081,0.083520,68
1784563965745000,-9.195998,0.017265,3.245274,-0.016771,-0.006500,0.013952,69
1784563965755000,-9.229392,-0.016332,3.239452,-0.013535,0.007319,0.010553,70
1784563965765000,-9.262339,-0.021035,3.214548,-0.015641,0.007267,0.013762,71
1784563965775000,-9.262795,-0.045132,3.233648,-0.016102,0.005531,0.014849,72
1784563965785000,-9.257473,-0.059398,3.214527,-0.013979,0.007250,0.016376,73
1784563965795000,-9.262504,-0.069056,3.223958,-0.014469,0.006093,0.016927,74
1784563965805000,-9.271797,-0.097790,3.213995,-0.015507,0.004939,0.016960,75
1784563965815000,-9.262228,-0.083386,3.214306,-0.014438,0.004953,0.016412,76
1784563965825000,-9.262486,-0.078648,3.223921,-0.014464,0.004971,0.014827,77
1784563965835000,-9.262262,-0.064201,3.214381,-0.010146,0.004444,0.013699,78
1784563965845000,-9.262146,-0.059376,3.209601,-0.008543,0.003907,0.011563,79
1784563965855000,-9.247540,-0.040111,3.200462,-0.006391,0.003369,0.009946,80
1784563965865000,-9.257083,-0.068903,3.200095,-0.003220,0.005675,0.010918,81
1784563965875000,-9.257116,-0.049718,3.200169,-0.002718,0.006264,0.009845,82
1784563965885000,-9.237821,-0.040067,3.195919,-0.002750,0.007404,0.010360,83
1784563965895000,-9.237937,-0.044892,3.200699,-0.002790,0.008550,0.010346,84
1784563965905000,-9.256866,-0.049660,3.190573,-0.002822,0.009690,0.010861,85
1784563965915000,-9.261913,-0.049726,3.200042,-0.001158,0.009112,0.012425,86
1784563965925000,-9.262047,-0.044958,3.204858,0.001564,0.009116,0.013962,87
1784563965935000,-9.257009,-0.040097,3.195408,0.004759,0.010287,0.013891,88
1784563965945000,-9.257383,-0.040184,3.209803,0.006879,0.010889,0.012788,89
1784563965955000,-9.261530,-0.054435,3.185628,0.007386,0.012034,0.013294,90
1784563965965000,-9.261672,-0.044871,3.190464,0.008421,0.012072,0.010632,91
1784563965975000,-9.270891,-0.044799,3.175813,0.009352,0.015537,0.008987,92
1784563965985000,-9.275422,-0.054341,3.166052,0.011440,0.017279,0.008400,93
1784563965995000,-9.270759,-0.049567,3.170996,0.014719,0.015597,0.007305,94
1784563966005000,-9.280228,-0.049553,3.165943,0.018453,0.016773,0.007224,95
1784563966015000,-9.280094,-0.054320,3.161126,0.018926,0.017941,0.005616,96
1784563966025000,-9.289830,-0.044771,3.165706,0.019947,0.019108,0.004526,97
1784563966035000,-9.289980,-0.030411,3.170560,0.019999,0.017394,0.004018,98
1784563966045000,-9.289872,-0.020790,3.165799,0.019532,0.015104,0.003526,99
1784563966055000,-9.299633,0.003148,3.170434,0.020695,0.012259,0.002483,100
1784563966065000,-9.295069,-0.006496,3.180121,0.018648,0.009370,0.003084,101
1784563966075000,-9.304438,0.007936,3.170325,0.018204,0.005945,0.001548,102
1784563966085000,-9.304296,-0.001627,3.165490,0.018839,0.002529,-0.000007,103
1784563966095000,-9.304413,-0.006452,3.170269,0.019959,0.001391,-0.000013,104
1784563966105000,-9.290388,-0.011313,3.185029,0.019474,-0.000888,-0.001562,105
1784563966115000,-9.294785,-0.025623,3.170450,0.017384,-0.002069,0.000076,106
1784563966125000,-9.290354,-0.030498,3.184954,0.019645,-0.005478,-0.000979,107
1784563966135000,-9.271666,-0.030585,3.204658,0.020257,-0.007760,-0.001491,108
1784563966145000,-9.271791,-0.030614,3.209457,0.021968,-0.010607,-0.002015,109
1784563966155000,-9.266860,-0.035373,3.204767,0.023029,-0.010587,-0.003091,110
1784563966165000,-9.262429,-0.040249,3.219271,0.024111,-0.011139,-0.004160,111
1784563966175000,-9.252869,-0.021049,3.219601,0.024041,-0.009414,-0.004709,112
1784563966185000,-9.252762,-0.011428,3.214840,0.025662,-0.009963,-0.005788,113
1784563966195000,-9.262106,-0.011385,3.204988,0.025682,-0.010536,-0.005782,114
1784563966205000,-9.247365,0.003113,3.191032,0.025743,-0.012255,-0.005761,115
1784563966215000,-9.266794,-0.001771,3.200099,0.024720,-0.012860,-0.003621,116
1784563966225000,-9.271492,0.012640,3.195229,0.023682,-0.014015,-0.003589,117
1784563966235000,-9.271376,0.017465,3.190449,0.022116,-0.015741,-0.004068,118
1784563966245000,-9.280961,0.012654,3.190175,0.020539,-0.016900,-0.004026,119
1784563966255000,-9.261773,0.012684,3.190686,0.019002,-0.019205,-0.003970,120
1784563966265000,-9.261747,-0.001705,3.190631,0.016822,-0.018088,-0.002888,121
1784563966275000,-9.262281,0.017364,3.209898,0.017413,-0.019797,-0.003406,122
1784563966285000,-9.253044,0.007699,3.224511,0.019002,-0.019205,-0.003970,123
1784563966295000,-9.247740,0.003026,3.205427,0.018921,-0.016913,-0.003997,124
1784563966305000,-9.233083,-0.006486,3.196177,0.018886,-0.015211,-0.002431,125
1784563966315000,-9.238403,0.007780,3.215298,0.018329,-0.013526,0.000200,126
1784563966325000,-9.228802,0.002998,3.215534,0.018810,-0.012364,-0.000880,127
1784563966335000,-9.229076,0.017329,3.225187,0.020869,-0.010043,-0.002002,128
1784563966345000,-9.234240,0.012438,3.239435,0.020866,-0.009481,-0.000952,129
1784563966355000,-9.248007,0.012561,3.215061,0.019689,-0.007186,-0.002016,130
1784563966365000,-9.281469,0.017334,3.209387,0.017509,-0.006068,-0.000934,131
1784563966375000,-9.300299,0.026984,3.194518,0.015957,-0.007245,0.000694,132
1784563966385000,-9.328947,0.022172,3.188935,0.015018,-0.010704,0.001810,133
1784563966395000,-9.318961,0.012681,3.174759,0.016157,-0.012415,0.001811,134
1784563966405000,-9.305220,0.026947,3.199189,0.015720,-0.015284,0.001854,135
1784563966415000,-9.281012,0.041431,3.190287,0.014151,-0.016449,0.002425,136
1784563966425000,-9.276348,0.046206,3.195231,0.010947,-0.017615,0.001968,137
1784563966435000,-9.266904,0.060581,3.200341,0.004018,-0.019962,0.002120,138
1784563966445000,-9.262249,0.070152,3.205304,-0.000322,-0.019978,0.000612,139
1784563966455000,-9.262232,0.060559,3.205266,-0.004584,-0.021726,0.000181,140
1784563966465000,-9.262606,0.060472,3.219661,-0.006681,-0.023462,0.000239,141
1784563966475000,-9.262739,0.065240,3.224478,-0.007136,-0.026320,-0.000774,142
1784563966485000,-9.267545,0.070028,3.224369,-0.009249,-0.028044,-0.001773,143
1784563966495000,-9.277355,0.050770,3.233636,-0.008716,-0.028595,-0.003361,144
1784563966505000,-9.286774,0.022007,3.228471,-0.009713,-0.030896,-0.003315,145
1784563966515000,-9.301797,0.026636,3.252097,-0.012349,-0.032636,-0.003247,146
1784563966525000,-9.277936,0.026644,3.257534,-0.012227,-0.036075,-0.003206,147
1784563966535000,-9.287556,0.041018,3.257334,-0.009922,-0.041192,-0.005298,148
1784563966545000,-9.282975,0.021783,3.266984,-0.007654,-0.044046,-0.004775,149
1784563966555000,-9.273406,0.036186,3.267295,-0.007104,-0.044609,-0.005306,150
1784563966565000,-9.273540,0.040953,3.272112,-0.008843,-0.041184,-0.005318,151
1784563966576000,-9.254218,0.036216,3.267806,-0.009438,-0.038913,-0.003749,152
1784563966586000,-9.230017,0.055496,3.258923,-0.010629,-0.035489,-0.003242,153
1784563966596000,-9.215727,0.041101,3.264049,-0.012294,-0.033233,-0.001126,154
1784563966606000,-9.205667,0.060417,3.245186,-0.013404,-0.032102,-0.000591,155
1784563966616000,-9.201719,0.045832,3.278845,-0.013967,-0.030971,0.000462,156
1784563966626000,-9.197181,0.050578,3.288588,-0.013996,-0.030392,-0.000074,157
1784563966636000,-9.202442,0.031270,3.307579,-0.015735,-0.026967,-0.000085,158
1784563966646000,-9.212011,0.016866,3.307268,-0.017455,-0.024114,-0.000090,159
1784563966656000,-9.221454,0.002491,3.302158,-0.017492,-0.023529,-0.001153,160
1784563966666000,-9.231148,-0.011941,3.306646,-0.015883,-0.023510,-0.001711,161
1784563966676000,-9.221545,-0.016723,3.306883,-0.012676,-0.022906,-0.002304,162
1784563966686000,-9.211819,-0.021475,3.302321,-0.007330,-0.022273,-0.003992,163
1784563966696000,-9.211910,-0.040689,3.307045,-0.003688,-0.019915,-0.007258,164
1784563966706000,-9.212001,-0.059903,3.311769,-0.001569,-0.019313,-0.008360,165
1784563966716000,-9.212251,-0.059961,3.321366,0.000569,-0.020401,-0.012085,166
1784563966726000,-9.216923,-0.059940,3.316440,0.002647,-0.018652,-0.013200,167
1784563966736000,-9.221719,-0.059947,3.316312,0.005845,-0.018042,-0.014322,168
1784563966746000,-9.221370,-0.045471,3.301973,0.009084,-0.018578,-0.015430,169
1784563966756000,-9.221869,-0.045587,3.321166,0.013337,-0.016825,-0.015527,170
1784563966766000,-9.212143,-0.050340,3.316604,0.017568,-0.013937,-0.014581,171
1784563966776000,-9.216798,-0.059911,3.311641,0.020165,-0.011612,-0.015713,172
1784563966786000,-9.226300,-0.040711,3.306662,0.022227,-0.008174,-0.014206,173
1784563966796000,-9.231122,-0.026330,3.306590,0.022743,-0.007035,-0.013173,174
1784563966806000,-9.235803,-0.021512,3.301682,0.021685,-0.007617,-0.013147,175
1784563966816000,-9.230783,-0.007058,3.292269,0.020128,-0.009349,-0.013097,176
1784563966826000,-9.211861,0.002506,3.302414,0.020186,-0.010507,-0.012027,177
1784563966836000,-9.207055,-0.002283,3.302523,0.020783,-0.011661,-0.010966,178
1784563966846000,-9.216508,-0.011861,3.297432,0.019701,-0.011108,-0.009897,179
1784563966856000,-9.207164,-0.011904,3.307284,0.018550,-0.008830,-0.009376,180
1784563966866000,-9.211802,-0.031068,3.302284,0.018478,-0.006544,-0.008874,181
1784563966876000,-9.221636,-0.035937,3.311606,0.017898,-0.005402,-0.008878,182
1784563966886000,-9.226408,-0.050333,3.311423,0.016770,-0.004258,-0.009401,183
1784563966896000,-9.231339,-0.045573,3.316112,0.016263,-0.005403,-0.009906,184
1784563966906000,-9.226408,-0.050333,3.311423,0.016834,-0.006539,-0.010431,185
1784563966916000,-9.226408,-0.050333,3.311423,0.017402,-0.007113,-0.009905,186
1784563966926000,-9.231347,-0.040777,3.316131,0.017965,-0.008244,-0.010958,187
1784563966936000,-9.231472,-0.040806,3.320929,0.016924,-0.008837,-0.009875,188
1784563966946000,-9.226325,-0.026323,3.306718,0.017970,-0.007688,-0.009380,189
1784563966956000,-9.226450,-0.026352,3.311516,0.017909,-0.005969,-0.009400,190
1784563966966000,-9.226425,-0.040740,3.311460,0.017863,-0.005378,-0.010992,191
1784563966976000,-9.240932,-0.045588,3.315856,0.015764,-0.006553,-0.009883,192
1784563966986000,-9.231588,-0.045631,3.325709,0.015242,-0.006569,-0.008816,193
1784563966996000,-9.217340,-0.036045,3.330927,0.014706,-0.007135,-0.009857,194
1784563967006000,-9.207629,-0.031205,3.326403,0.014195,-0.007718,-0.009312,195
1784563967016000,-9.198418,-0.026481,3.341072,0.013644,-0.007155,-0.008781,196
1784563967026000,-9.217124,-0.016802,3.321405,0.011499,-0.007739,-0.009264,197
1784563967036000,-9.226950,-0.026468,3.330709,0.010446,-0.007766,-0.007659,198
1784563967046000,-9.231605,-0.036039,3.325746,0.009437,-0.009499,-0.007091,199
1784563967056000,-9.245738,-0.040799,3.315747,0.008907,-0.009509,-0.006553,200
1784563967066000,-9.240966,-0.026403,3.315931,0.008376,-0.009520,-0.006015,201
1784563967076000,-9.245746,-0.036003,3.315766,0.006807,-0.010684,-0.005444,202
1784563967086000,-9.226316,-0.031119,3.306699,0.004642,-0.010695,-0.005934,203
1784563967096000,-9.231472,-0.040806,3.320929,0.004140,-0.011285,-0.004861,204
1784563967106000,-9.231256,-0.021563,3.311407,0.003119,-0.012451,-0.003771,205
1784563967116000,-9.235769,-0.040697,3.301608,0.004810,-0.014725,-0.004301,206
1784563967126000,-9.240966,-0.026403,3.315931,0.002725,-0.017028,-0.004765,207
1784563967136000,-9.241074,-0.036024,3.320692,0.001679,-0.018177,-0.005260,208
1784563967146000,-9.226941,-0.031264,3.330690,0.000084,-0.019324,-0.006275,209
1784563967156000,-9.226825,-0.026439,3.325911,0.000087,-0.019885,-0.007325,210
1784563967166000,-9.222268,-0.031285,3.335616,-0.000391,-0.021609,-0.007295,211
1784563967176000,-9.226933,-0.036060,3.330672,-0.000887,-0.023320,-0.008323,212
1784563967186000,-9.217489,-0.021685,3.335781,-0.002064,-0.021025,-0.009387,213
1784563967196000,-9.227466,-0.016991,3.349939,-0.005822,-0.021066,-0.008263,214
1784563967206000,-9.212809,-0.026503,3.340689,-0.008518,-0.021087,-0.008214,215
1784563967216000,-9.194237,-0.031415,3.365172,-0.011696,-0.022271,-0.007086,216
1784563967226000,-9.208653,-0.017048,3.364845,-0.013836,-0.022300,-0.005991,217
1784563967236000,-9.208494,-0.036204,3.359972,-0.014891,-0.021765,-0.003336,218
1784563967246000,-9.213133,-0.055368,3.354972,-0.016451,-0.022936,-0.002236,219
1784563967256000,-9.236858,-0.060143,3.344718,-0.019072,-0.024127,-0.000061,220
1784563967266000,-9.250867,-0.064875,3.329921,-0.018377,-0.027585,0.002084,221
1784563967276000,-9.236575,-0.079270,3.335047,-0.017817,-0.028154,0.002081,222
1784563967286000,-9.227115,-0.074488,3.340120,-0.017878,-0.026434,0.002061,223
1784563967296000,-9.208336,-0.055360,3.355100,-0.019548,-0.024734,0.002598,224
1784563967306000,-9.194170,-0.069785,3.365024,-0.020647,-0.024169,0.002611,225
1784563967316000,-9.179688,-0.050548,3.360683,-0.024494,-0.021912,0.003180,226
1784563967326000,-9.175273,-0.045832,3.375224,-0.025602,-0.021342,0.002664,227
1784563967336000,-9.180153,-0.069849,3.379802,-0.025144,-0.019045,0.002628,228
1784563967346000,-9.175123,-0.060191,3.370370,-0.026315,-0.016194,0.003142,229
1784563967356000,-9.180294,-0.060286,3.384637,-0.024697,-0.016182,0.003113,230
1784563967366000,-9.189613,-0.074632,3.374729,-0.021502,-0.015010,0.003041,231
1784563967376000,-9.198950,-0.079385,3.364859,-0.021001,-0.014421,0.001968,232
1784563967386000,-9.223059,-0.079451,3.369019,-0.022627,-0.014428,0.001469,233
1784563967396000,-9.218387,-0.079472,3.373944,-0.022644,-0.014416,0.000412,234
1784563967406000,-9.218503,-0.084298,3.378724,-0.022604,-0.015562,0.000425,235
1784563967416000,-9.209043,-0.079516,3.383796,-0.022595,-0.015568,0.000954,236
1784563967426000,-9.189846,-0.084282,3.384289,-0.019902,-0.014985,0.001956,237
1784563967436000,-9.175722,-0.074725,3.394305,-0.017777,-0.013828,0.002432,238
1784563967446000,-9.175830,-0.084347,3.399067,-0.015680,-0.012092,0.002373,239
1784563967456000,-9.175714,-0.079521,3.394287,-0.014173,-0.009208,0.001782,240
1784563967466000,-9.199574,-0.079530,3.388850,-0.013703,-0.007478,0.001224,241
1784563967476000,-9.194518,-0.084260,3.379363,-0.013720,-0.007467,0.000167,242
1784563967486000,-9.198950,-0.079385,3.364859,-0.015301,-0.008064,0.001260,243
1784563967496000,-9.190096,-0.084340,3.393885,-0.013030,-0.011480,0.000733,244
1784563967506000,-9.190221,-0.084369,3.398683,-0.010850,-0.012597,-0.000349,245
1784563967516000,-9.199565,-0.084326,3.388832,-0.010409,-0.010289,-0.001443,246
1784563967526000,-9.199548,-0.093918,3.388794,-0.010490,-0.007996,-0.001470,247
1784563967536000,-9.199548,-0.093918,3.388794,-0.009902,-0.009144,-0.000937,248
1784563967546000,-9.204595,-0.093984,3.398263,-0.009383,-0.008567,-0.000954,249
1784563967556000,-9.190204,-0.093961,3.398646,-0.009403,-0.007994,-0.000960,250
1784563967566000,-9.185674,-0.084420,3.408408,-0.007266,-0.007404,-0.001006,251
1784563967576000,-9.171390,-0.094019,3.413552,-0.006147,-0.008541,-0.001011,252
1784563967586000,-9.171149,-0.089164,3.403974,-0.004550,-0.007956,-0.001047,253
1784563967596000,-9.166610,-0.084419,3.413717,-0.003471,-0.007947,-0.001066,254
1784563967607000,-9.181100,-0.098859,3.418076,-0.002952,-0.007370,-0.001083,255
1784563967617000,-9.194992,-0.098765,3.398500,-0.001931,-0.006203,-0.002172,0
1784563967627000,-9.190578,-0.094048,3.413041,-0.000861,-0.006189,-0.002720,1
1784563967637000,-9.185390,-0.103547,3.398737,-0.000371,-0.005032,-0.003272,2
1784563967647000,-9.185407,-0.093954,3.398774,-0.000429,-0.003874,-0.004342,3
1784563967657000,-9.175838,-0.079550,3.399085,-0.000519,-0.001576,-0.004898,4
1784563967667000,-9.180493,-0.089121,3.394122,-0.000551,-0.000436,-0.004383,5
1784563967677000,-9.185575,-0.070002,3.403665,0.000533,0.000128,-0.002823,6
1784563967687000,-9.185424,-0.084362,3.398811,0.001101,-0.000447,-0.002298,7
1784563967697000,-9.195018,-0.084376,3.398556,-0.000058,0.001837,-0.002305,8
1784563967707000,-9.189971,-0.084311,3.389087,0.000510,0.001262,-0.001780,9
1784563967717000,-9.185407,-0.093954,3.398774,0.000977,0.003553,-0.001288,10
1784563967727000,-9.180877,-0.084412,3.408535,-0.000650,0.003546,-0.001787,11
1784563967737000,-9.190354,-0.079602,3.403500,-0.000189,0.005281,-0.002874,12
1784563967747000,-9.185540,-0.089187,3.403591,0.000301,0.006438,-0.003425,13
1784563967757000,-9.185148,-0.098692,3.389159,0.000272,0.007017,-0.003961,14
1784563967767000,-9.209659,-0.084457,3.407769,0.001890,0.007029,-0.003990,15
1784563967777000,-9.204461,-0.098751,3.393446,0.002412,0.007046,-0.005056,16
1784563967787000,-9.209258,-0.098759,3.393319,0.003491,0.007054,-0.005075,17
1784563967797000,-9.199389,-0.113074,3.383922,0.004618,0.005910,-0.004553,18
1784563967807000,-9.199389,-0.113074,3.383922,0.005738,0.004773,-0.004559,19
1784563967817000,-9.199298,-0.093860,3.379198,0.006828,0.004214,-0.005100,20
1784563967827000,-9.194485,-0.103446,3.379288,0.007886,0.004796,-0.005126,21
1784563967837000,-9.189671,-0.113031,3.379379,0.007306,0.005938,-0.005130,22
1784563967847000,-9.190079,-0.093933,3.393848,0.008883,0.007097,-0.005172,23
1784563967857000,-9.189829,-0.093875,3.384252,0.009452,0.006522,-0.004646,24
1784563967867000,-9.194751,-0.093911,3.388922,0.007776,0.007667,-0.005688,25
1784563967877000,-9.199306,-0.089064,3.379216,0.007727,0.008819,-0.006230,26
1784563967887000,-9.204121,-0.079479,3.379126,0.007758,0.007679,-0.006745,27
1784563967897000,-9.208926,-0.074690,3.379017,0.006689,0.007665,-0.006197,28
1784563967907000,-9.213723,-0.074698,3.378889,0.007828,0.005954,-0.006196,29
1784563967917000,-9.218361,-0.093861,3.373889,0.007848,0.005381,-0.006189,30
1784563967927000,-9.218352,-0.098657,3.373870,0.005683,0.005370,-0.006679,31
1784563967937000,-9.203970,-0.093839,3.374272,0.005129,0.006494,-0.005098,32
1784563967947000,-9.203996,-0.079450,3.374328,0.002992,0.005904,-0.005052,33
1784563967957000,-9.208277,-0.088934,3.354970,0.001354,0.006464,-0.005030,34
1784563967967000,-9.203247,-0.079276,3.345538,0.000333,0.005298,-0.003941,35
1784563967977000,-9.208053,-0.074487,3.345429,-0.001804,0.004707,-0.003895,36
1784563967987000,-9.236808,-0.088921,3.344607,-0.000087,0.002416,-0.002840,37
1784563967997000,-9.241372,-0.079278,3.334919,-0.000047,0.001270,-0.002827,38
1784563968007000,-9.241846,-0.093782,3.354057,-0.000459,-0.001618,-0.001198,39
1784563968017000,-9.222658,-0.093753,3.354568,-0.000957,-0.002768,-0.001175,40
1784563968027000,-9.208643,-0.093817,3.369346,-0.002546,-0.003360,-0.000611,41
1784563968037000,-9.199049,-0.093802,3.369601,-0.002613,-0.002196,-0.002210,42
1784563968047000,-9.203730,-0.088985,3.364694,-0.003630,-0.003924,-0.002170,43
1784563968057000,-9.198933,-0.088977,3.364822,-0.005309,-0.002217,-0.002162,44
1784563968067000,-9.203238,-0.084072,3.345520,-0.008559,-0.001114,-0.000532,45
1784563968077000,-9.189730,-0.079457,3.379509,-0.009589,-0.002275,0.000029,46
1784563968087000,-9.189721,-0.084253,3.379490,-0.011276,-0.000562,-0.000490,47
1784563968097000,-9.203830,-0.103402,3.369437,-0.012323,-0.001711,-0.000986,48
1784563968107000,-9.218352,-0.098657,3.373870,-0.012906,-0.000008,0.000060,49
1784563968117000,-9.241796,-0.122560,3.353946,-0.014515,-0.000027,0.000618,50
1784563968127000,-9.255937,-0.122524,3.343966,-0.015457,-0.002924,0.002785,51
1784563968137000,-9.251248,-0.132138,3.348855,-0.013207,-0.005767,0.002251,52
1784563968147000,-9.236608,-0.132058,3.339642,-0.012477,-0.010926,0.002831,53
1784563968157000,-9.208084,-0.127275,3.350023,-0.011366,-0.012058,0.002296,54
1784563968167000,-9.198849,-0.136940,3.364636,-0.008180,-0.010880,0.001696,55
1784563968177000,-9.174838,-0.151291,3.365219,-0.006623,-0.009148,0.001647,56
1784563968187000,-9.175229,-0.141786,3.379651,-0.006194,-0.006273,0.001076,57
1784563968197000,-9.180160,-0.137026,3.384340,-0.007403,-0.002837,0.000526,58
1784563968207000,-9.174630,-0.127252,3.355716,-0.005364,0.000057,-0.000603,59
1784563968217000,-9.174772,-0.117689,3.360551,-0.004866,0.001208,-0.000626,60
1784563968227000,-9.184642,-0.103373,3.369948,-0.005466,0.002923,-0.000637,61
1784563968237000,-9.170109,-0.112914,3.365495,-0.004419,0.004072,-0.000141,62
1784563968247000,-9.184525,-0.098547,3.365168,-0.004442,0.005206,0.000903,63
1784563968257000,-9.193869,-0.098504,3.355316,-0.002860,0.006920,0.002439,64
1784563968267000,-9.198632,-0.117697,3.355114,-0.001303,0.008652,0.002390,65
1784563968277000,-9.212998,-0.132108,3.354675,-0.000181,0.008631,0.005013,66
1784563968287000,-9.208201,-0.132100,3.354803,0.000869,0.009218,0.004459,67
1784563968297000,-9.198857,-0.132144,3.364655,0.004612,0.010388,0.004906,68
1784563968307000,-9.193835,-0.117689,3.355242,0.004032,0.011530,0.004903,69
1784563968317000,-9.198641,-0.112901,3.355133,0.003441,0.013239,0.005420,70
1784563968327000,-9.207777,-0.088818,3.335777,0.002881,0.013808,0.005423,71
1784563968337000,-9.198183,-0.088803,3.336032,0.001750,0.015513,0.005951,72
1784563968347000,-9.207768,-0.093614,3.335758,0.001759,0.015507,0.006480,73
1784563968357000,-9.207670,-0.079197,3.331016,0.001779,0.014934,0.006486,74
1784563968367000,-9.212725,-0.074466,3.340503,0.001240,0.014930,0.006496,75
1784563968377000,-9.226874,-0.069634,3.330542,-0.002121,0.018904,0.007564,76
1784563968387000,-9.222060,-0.079219,3.330632,-0.004243,0.018863,0.009716,77
1784563968397000,-9.212591,-0.079233,3.335686,-0.005220,0.015989,0.009769,78
1784563968407000,-9.216972,-0.103135,3.321071,-0.005742,0.015973,0.010836,79
1784563968417000,-9.226423,-0.112713,3.315980,-0.005754,0.016540,0.011358,80
1784563968427000,-9.241163,-0.127211,3.329936,-0.003536,0.014838,0.011339,81
1784563968437000,-9.236366,-0.127204,3.330064,-0.003454,0.012546,0.011366,82
1784563968447000,-9.245828,-0.131986,3.324991,-0.001845,0.012564,0.010809,83
1784563968457000,-9.240897,-0.136746,3.320302,-0.000204,0.011443,0.009736,84
1784563968467000,-9.235884,-0.117495,3.310908,0.000860,0.010902,0.007610,85
1784563968477000,-9.235785,-0.103078,3.306165,0.003559,0.010362,0.006511,86
1784563968487000,-9.235518,-0.112612,3.296531,0.005737,0.009806,0.006479,87
1784563968497000,-9.230522,-0.083769,3.287174,0.006798,0.009826,0.005403,88
1784563968507000,-9.250175,-0.103100,3.305782,0.006769,0.010405,0.004868,89
1784563968517000,-9.254615,-0.093428,3.291296,0.005714,0.009262,0.003843,90
1784563968527000,-9.259553,-0.083872,3.296004,0.005305,0.005814,0.004422,91
1784563968537000,-9.273746,-0.055059,3.286136,0.004902,0.002920,0.006579,92
1784563968547000,-9.255056,-0.055145,3.305840,0.004420,0.001758,0.007659,93
1784563968557000,-9.260086,-0.064803,3.315271,0.004452,0.000618,0.007144,94
1784563968567000,-9.240924,-0.050384,3.315838,0.003939,0.000596,0.008739,95
1784563968577000,-9.241032,-0.060006,3.320599,0.003997,-0.000562,0.009810,96
1784563968587000,-9.221852,-0.055180,3.321129,0.003530,-0.002853,0.009318,97
1784563968597000,-9.217289,-0.064823,3.330816,0.001422,-0.004022,0.009898,98
1784563968607000,-9.222094,-0.060034,3.330707,-0.001286,-0.003476,0.010468,99
1784563968617000,-9.217555,-0.055288,3.340450,-0.004455,-0.004666,0.012125,100
1784563968628000,-9.207613,-0.040798,3.326366,-0.007102,-0.005839,0.012715,101
1784563968638000,-9.198268,-0.040841,3.336218,-0.010970,-0.003009,0.013277,102
1784563968648000,-9.207754,-0.031234,3.331201,-0.015275,-0.003049,0.013883,103
1784563968658000,-9.198518,-0.040899,3.345814,-0.019024,-0.003096,0.015536,104
1784563968668000,-9.203315,-0.040906,3.345687,-0.022274,-0.001994,0.017166,105
1784563968678000,-9.217706,-0.040928,3.345303,-0.024475,-0.000303,0.018241,106
1784563968688000,-9.198801,-0.021772,3.355485,-0.025623,0.001414,0.017712,107
1784563968698000,-9.203572,-0.036168,3.355302,-0.026249,0.003146,0.016116,108
1784563968708000,-9.198650,-0.036131,3.350631,-0.028444,0.003714,0.015091,109
1784563968718000,-9.217564,-0.050492,3.340468,-0.030082,0.004275,0.015113,110
1784563968728000,-9.212749,-0.060077,3.340559,-0.031161,0.004266,0.015132,111
1784563968738000,-9.208061,-0.069691,3.345448,-0.031210,0.005418,0.014591,112
1784563968748000,-9.208018,-0.093672,3.345355,-0.029642,0.006583,0.014020,113
1784563968758000,-9.207768,-0.093614,3.335758,-0.026455,0.007761,0.013420,114
1784563968768000,-9.217354,-0.098426,3.335484,-0.023159,0.006067,0.013382,115
1784563968778000,-9.222150,-0.098433,3.335356,-0.019401,0.006109,0.012258,116
1784563968788000,-9.231620,-0.098419,3.330303,-0.016751,0.006721,0.010617,117
1784563968798000,-9.222052,-0.084015,3.330614,-0.014028,0.005046,0.008475,118
1784563968808000,-9.226866,-0.074430,3.330523,-0.011326,0.003945,0.006326,119
1784563968818000,-9.231679,-0.064845,3.330433,-0.008177,0.005708,0.004663,120
1784563968828000,-9.217430,-0.055259,3.335651,-0.006614,0.006317,0.002513,121
1784563968838000,-9.222003,-0.040820,3.325983,-0.005025,0.006909,0.001949,122
1784563968848000,-9.226450,-0.026352,3.311516,-0.004500,0.006364,-0.000168,123
1784563968858000,-9.236535,-0.031279,3.330435,-0.005080,0.007506,-0.000171,124
1784563968868000,-9.245988,-0.040857,3.325344,-0.006113,0.006906,0.001440,125
1784563968878000,-9.231372,-0.026388,3.316186,-0.006553,0.004598,0.002533,126
1784563968888000,-9.221894,-0.031198,3.321222,-0.006495,0.003440,0.003604,127
1784563968898000,-9.226675,-0.040798,3.321057,-0.005269,-0.000008,0.005210,128
1784563968908000,-9.231122,-0.026330,3.306590,-0.004141,-0.001152,0.005733,129
1784563968918000,-9.226441,-0.031148,3.311497,-0.004643,-0.001741,0.006806,130
1784563968928000,-9.226675,-0.040798,3.321057,-0.004118,-0.000608,0.008369,131
1784563968938000,-9.226800,-0.040827,3.325855,-0.002500,-0.000595,0.008340,132
1784563968948000,-9.226908,-0.050449,3.330616,-0.001442,-0.000014,0.008314,133
1784563968958000,-9.227157,-0.050507,3.340213,-0.001515,0.002273,0.008815,134
1784563968968000,-9.236626,-0.050493,3.335159,-0.000999,0.003411,0.009849,135
1784563968978000,-9.240924,-0.050384,3.315838,-0.001022,0.004545,0.010893,136
1784563968988000,-9.250268,-0.050341,3.305986,0.002304,0.002273,0.011390,137
1784563968998000,-9.245337,-0.055101,3.301297,0.005603,0.000018,0.010302,138
1784563969008000,-9.240416,-0.055065,3.296627,0.008303,-0.000522,0.009204,139
1784563969018000,-9.230340,-0.045341,3.277726,0.008801,0.000628,0.009181,140
1784563969028000,-9.206606,-0.045362,3.287961,0.008735,0.001792,0.007582,141
1784563969038000,-9.211419,-0.035777,3.287871,0.007071,0.002370,0.006019,142
1784563969048000,-9.211287,-0.040544,3.283054,0.008120,0.002958,0.005464,143
1784563969058000,-9.221121,-0.045413,3.292377,0.009193,0.002411,0.003866,144
1784563969068000,-9.225784,-0.050188,3.287432,0.010782,0.003003,0.003302,145
1784563969078000,-9.230847,-0.040661,3.296938,0.013971,0.003619,0.001652,146
1784563969088000,-9.221154,-0.026228,3.292451,0.016659,0.003646,0.001075,147
1784563969098000,-9.230989,-0.031097,3.301773,0.019318,0.004252,-0.000037,148
1784563969108000,-9.240067,-0.040589,3.282287,0.019813,0.005964,0.000991,149
1784563969118000,-9.264077,-0.026237,3.281704,0.019802,0.006531,0.001512,150
1784563969128000,-9.254251,-0.016572,3.272401,0.019332,0.004802,0.002071,151
1784563969138000,-9.273555,-0.021427,3.276669,0.021495,0.003696,-0.000068,152
1784563969148000,-9.268409,-0.006944,3.262458,0.021078,0.000253,-0.000019,153
1784563969158000,-9.273472,0.002583,3.271964,0.022258,-0.002603,-0.000004,154
1784563969168000,-9.268409,-0.006944,3.262458,0.022304,-0.004872,-0.002091,155
1784563969178000,-9.282666,-0.011733,3.257258,0.022432,-0.009433,-0.004152,156
1784563969188000,-9.268267,-0.016507,3.257623,0.023113,-0.013440,-0.004114,157
1784563969198000,-9.263512,0.007482,3.257843,0.023745,-0.016296,-0.004619,158
1784563969208000,-9.263637,0.007453,3.262641,0.025456,-0.019142,-0.005143,159
1784563969218000,-9.259339,0.007344,3.281962,0.027779,-0.024271,-0.006178,160
1784563969228000,-9.249745,0.007359,3.282218,0.027254,-0.025404,-0.007740,161
1784563969238000,-9.245065,0.002541,3.287125,0.027274,-0.025977,-0.007733,162
1784563969248000,-9.249587,-0.011797,3.277345,0.026349,-0.030564,-0.008189,163
1784563969258000,-9.240393,0.002520,3.292051,0.026399,-0.031716,-0.007647,164
1784563969268000,-9.249987,0.002505,3.291795,0.030275,-0.034552,-0.007681,165
1784563969278000,-9.240625,-0.007131,3.301610,0.033502,-0.034521,-0.008267,166
1784563969288000,-9.235703,-0.007095,3.296940,0.033969,-0.032230,-0.007775,167
1784563969298000,-9.221920,-0.016810,3.321277,0.030185,-0.030576,-0.004557,168
1784563969308000,-9.217391,-0.007268,3.331038,0.027428,-0.028878,-0.004529,169
1784563969318000,-9.207813,0.002340,3.331331,0.026349,-0.028886,-0.004510,170
1784563969328000,-9.193289,-0.002405,3.326898,0.025308,-0.029480,-0.003427,171
1784563969338000,-9.198228,0.007151,3.331605,0.025239,-0.027755,-0.003975,172
1784563969348000,-9.197978,0.007209,3.322009,0.025175,-0.025474,-0.002945,173
1784563969358000,-9.197745,0.016859,3.312449,0.025624,-0.023172,-0.003510,174
1784563969368000,-9.192823,0.016896,3.307779,0.026187,-0.024302,-0.004563,175
1784563969378000,-9.192664,-0.002260,3.302906,0.024517,-0.022601,-0.004026,176
1784563969388000,-9.212111,0.002448,3.312011,0.020840,-0.024935,-0.002875,177
1784563969398000,-9.226359,-0.007138,3.306792,0.017431,-0.019809,-0.002349,178
1784563969408000,-9.235695,-0.011891,3.296921,0.015775,-0.019237,-0.003384,179
1784563969418000,-9.236211,-0.002414,3.316151,0.015247,-0.019808,-0.003896,180
1784563969428000,-9.226242,-0.002312,3.302012,0.015268,-0.020381,-0.003889,181
1784563969438000,-9.226875,0.002339,3.326022,0.013114,-0.020959,-0.004901,182
1784563969448000,-9.212610,0.002332,3.331203,0.013140,-0.020977,-0.003315,183
1784563969458000,-9.203640,0.002202,3.355450,0.012041,-0.020412,-0.003303,184
1784563969468000,-9.208437,0.002195,3.355322,0.012539,-0.019262,-0.003326,185
1784563969478000,-9.194046,0.002217,3.355706,0.010849,-0.016988,-0.002795,186
1784563969488000,-9.184702,0.002174,3.365557,0.010887,-0.017573,-0.001731,187
1784563969498000,-9.184959,0.006912,3.375173,0.012078,-0.020997,-0.002239,188
1784563969508000,-9.189748,0.002109,3.375026,0.009666,-0.013570,-0.001759,189
1784563969518000,-9.175490,0.006898,3.380226,0.009025,-0.010709,-0.001783,190
1784563969528000,-9.189756,0.006905,3.375045,0.007338,-0.008997,-0.002303,191
1784563969538000,-9.175332,-0.012258,3.375354,0.007323,-0.007868,-0.000731,192
1784563969548000,-9.189857,-0.007513,3.379787,0.006163,-0.005584,-0.000738,193
1784563969558000,-9.199326,-0.007499,3.374734,0.004456,-0.003299,-0.001265,194
1784563969568000,-9.203881,-0.002652,3.365028,0.003296,-0.001015,-0.001272,195
1784563969578000,-9.218265,-0.007471,3.364626,0.002215,-0.000462,-0.000203,196
1784563969588000,-9.208671,-0.007456,3.364882,0.003890,-0.001607,0.000839,197
1784563969598000,-9.199235,0.011715,3.370010,0.004470,-0.002749,0.000842,198
1784563969608000,-9.218530,0.002064,3.374260,0.005560,-0.003308,0.000301,199
1784563969618000,-9.213708,-0.012317,3.374332,0.006158,-0.004462,0.001362,200
1784563969628000,-9.204105,-0.017099,3.374569,0.006729,-0.005598,0.000837,201
1784563969639000,-9.204614,-0.012418,3.393780,0.006221,-0.006742,0.000332,202
1784563969649000,-9.204222,-0.021924,3.379349,0.005636,-0.006156,-0.001251,203
1784563969659000,-9.223783,-0.022041,3.393232,0.005097,-0.006160,-0.001241,204
1784563969668000,-9.209311,0.001992,3.388910,0.006706,-0.006141,-0.001798,205
1784563969679000,-9.213575,-0.017085,3.369515,0.005659,-0.007290,-0.002294,206
1784563969689000,-9.194778,-0.007549,3.384458,0.007286,-0.007283,-0.001795,207
1784563969699000,-9.194795,0.002043,3.384495,0.006799,-0.009001,-0.002293,208
1784563969709000,-9.195294,0.001927,3.403688,0.008437,-0.009561,-0.002315,209
1784563969719000,-9.190123,0.002022,3.389421,0.008448,-0.010128,-0.002837,210
1784563969729000,-9.189774,0.016497,3.375082,0.007373,-0.010698,-0.003868,211
1784563969739000,-9.195062,0.011578,3.394129,0.006935,-0.013568,-0.003825,212
1784563969749000,-9.199475,0.006861,3.379588,0.005845,-0.013009,-0.003284,213
1784563969759000,-9.195045,0.001985,3.394092,0.005807,-0.012424,-0.004348,214
1784563969769000,-9.199751,0.021192,3.389240,0.006346,-0.012420,-0.004357,215
1784563969779000,-9.204906,0.011505,3.403470,0.005230,-0.011843,-0.005402,216
1784563969789000,-9.223959,0.006708,3.398142,0.002560,-0.011882,-0.003768,217
1784563969799000,-9.228498,0.001962,3.388399,0.001661,-0.016487,-0.002638,218
1784563969809000,-9.242872,-0.007653,3.387979,0.001243,-0.019930,-0.002588,219
1784563969819000,-9.228464,-0.017223,3.388325,0.001322,-0.021661,-0.001511,220
1784563969829000,-9.223934,-0.007681,3.398086,0.000255,-0.022237,-0.002013,221
1784563969839000,-9.204522,0.006796,3.389056,-0.001407,-0.020542,-0.000948,222
1784563969849000,-9.185326,0.002029,3.389549,-0.003042,-0.020543,-0.001976,223
1784563969859000,-9.170776,-0.017105,3.385059,-0.005767,-0.019985,-0.002463,224
1784563969869000,-9.175815,-0.021966,3.394510,-0.006257,-0.021142,-0.001911,225
1784563969879000,-9.171168,-0.007599,3.399491,-0.005738,-0.020564,-0.001927,226
1784563969889000,-9.180969,-0.031653,3.408740,-0.005779,-0.019418,-0.001941,227
1784563969899000,-9.176546,-0.031733,3.423262,-0.006399,-0.017130,-0.001958,228
1784563969909000,-9.162056,-0.017293,3.418903,-0.007571,-0.014279,-0.001444,229
1784563969919000,-9.161931,-0.017264,3.414104,-0.008661,-0.013720,-0.000903,230
1784563969929000,-9.176530,-0.041325,3.423225,-0.009203,-0.013163,0.000157,231
1784563969939000,-9.200397,-0.036537,3.417806,-0.010296,-0.012044,0.001748,232
1784563969949000,-9.200515,-0.041363,3.422586,-0.009827,-0.010314,0.001190,233
1784563969959000,-9.195751,-0.022170,3.422788,-0.009299,-0.009743,0.001702,234
1784563969969000,-9.190654,-0.050882,3.413208,-0.007240,-0.007422,0.000580,235
1784563969979000,-9.176246,-0.060452,3.413554,-0.005672,-0.006257,0.000009,236
1784563969989000,-9.171449,-0.060445,3.413682,-0.004074,-0.005671,-0.000027,237
1784563969999000,-9.171325,-0.060416,3.408884,-0.000847,-0.005639,-0.000613,238
1784563970009000,-9.176105,-0.070016,3.408719,-0.000377,-0.003910,-0.001171,239
1784563970019000,-9.175856,-0.069958,3.399122,0.001209,-0.002757,-0.000685,240
1784563970029000,-9.171066,-0.065154,3.399269,0.002296,-0.002755,-0.000176,241
1784563970039000,-9.166652,-0.060437,3.413810,0.004954,-0.002148,-0.001288,242
1784563970049000,-9.166429,-0.045991,3.404269,0.004905,-0.000996,-0.001830,243
1784563970059000,-9.180586,-0.036363,3.394326,0.003206,0.001283,-0.001828,244
1784563970069000,-9.190072,-0.026756,3.389310,0.000559,0.000110,-0.001238,245
1784563970079000,-9.195527,-0.007723,3.413247,-0.002088,-0.001063,-0.000647,246
1784563970089000,-9.195161,-0.002840,3.398871,-0.003144,-0.000528,0.002008,247
1784563970099000,-9.190473,-0.012454,3.403760,-0.003054,-0.002827,0.002563,248
1784563970109000,-9.200540,-0.026974,3.422642,-0.003033,-0.003400,0.002570,249
1784563970119000,-9.190521,-0.055649,3.408391,-0.004092,-0.003981,0.002596,250
1784563970129000,-9.181551,-0.055779,3.432638,-0.006750,-0.004587,0.003708,251
1784563970139000,-9.176854,-0.070190,3.437508,-0.007907,-0.002865,0.002650,252
1784563970149000,-9.176620,-0.060539,3.427949,-0.006846,-0.002844,0.001573,253
1784563970159000,-9.176737,-0.065365,3.432729,-0.005796,-0.002257,0.001019,254
1784563970169000,-9.190862,-0.074921,3.422712,-0.004767,-0.001096,0.000458,255
1784563970179000,-9.166893,-0.065292,3.423388,-0.002633,0.000055,0.001463,0
1784563970189000,-9.166528,-0.060408,3.409012,-0.002143,0.001211,0.000911,1
1784563970199000,-9.166652,-0.060437,3.413810,-0.001563,0.000069,0.000915,2
1784563970209000,-9.171724,-0.046114,3.423334,-0.001004,-0.000500,0.000912,3
1784563970219000,-9.185750,-0.041253,3.408575,-0.000946,-0.001658,0.001982,4
1784563970229000,-9.200298,-0.022119,3.413064,-0.000929,-0.001669,0.003039,5
1784563970239000,-9.200265,-0.041305,3.412990,0.000678,-0.001090,0.003532,6
1784563970249000,-9.200132,-0.046072,3.408173,-0.000413,-0.000531,0.004073,7
1784563970259000,-9.185999,-0.041311,3.418171,0.000625,0.000624,0.004041,8
1784563970269000,-9.186374,-0.041398,3.432566,0.000593,0.001764,0.004556,9
1784563970279000,-9.190821,-0.026930,3.418099,0.000054,0.001760,0.004565,10
1784563970289000,-9.190937,-0.031755,3.422879,-0.000984,0.000605,0.004598,11
1784563970299000,-9.176787,-0.036587,3.432840,-0.002555,0.000001,0.006219,12
1784563970309000,-9.162139,-0.041303,3.423608,-0.002608,0.001715,0.006728,13
1784563970319000,-9.166686,-0.041252,3.413884,-0.001552,0.002858,0.007752,14
1784563970329000,-9.176172,-0.031646,3.408867,-0.001051,0.003447,0.006678,15
1784563970339000,-9.181102,-0.026886,3.413556,-0.001111,0.005166,0.006658,16
1784563970349000,-9.190722,-0.012512,3.413357,-0.002178,0.004590,0.006156,17
1784563970359000,-9.185925,-0.012505,3.413484,-0.003367,0.007453,0.005613,18
1784563970369000,-9.190348,-0.012425,3.398962,-0.003318,0.006301,0.006155,19
1784563970379000,-9.185551,-0.012418,3.399090,-0.003387,0.008026,0.005606,20
1784563970389000,-9.185692,-0.002854,3.403925,-0.002248,0.006316,0.005607,21
1784563970399000,-9.185792,-0.017272,3.408668,-0.002799,0.006878,0.006139,22
1784563970409000,-9.190589,-0.017279,3.408540,-0.002816,0.006890,0.005082,23
1784563970419000,-9.204864,-0.012476,3.403377,-0.001668,0.005174,0.005611,24
1784563970429000,-9.204971,-0.022098,3.408138,-0.001677,0.005180,0.005082,25
1784563970439000,-9.204988,-0.012505,3.408175,-0.001120,0.005172,0.006130,26
1784563970449000,-9.204988,-0.012505,3.408175,0.001037,0.005189,0.006091,27
1784563970459000,-9.195145,-0.012433,3.398834,0.002107,0.005203,0.005543,28
1784563970469000,-9.195169,0.001956,3.398890,0.003693,0.006356,0.006030,29
1784563970479000,-9.190372,0.001964,3.399018,0.004183,0.007513,0.005478,30
1784563970489000,-9.190131,0.006818,3.389440,0.003594,0.008661,0.004946,31
1784563970499000,-9.199600,0.006832,3.384386,0.002507,0.008658,0.004437,32
1784563970509000,-9.199850,0.006774,3.393982,0.000852,0.009230,0.003402,33
1784563970519000,-9.185825,0.001913,3.408742,0.000872,0.008657,0.003408,34
1784563970529000,-9.185991,0.025865,3.413633,0.000895,0.007523,0.002365,35
1784563970539000,-9.185991,0.025865,3.413633,0.000878,0.007535,0.001308,36
1784563970549000,-9.186125,0.030633,3.418449,-0.000711,0.006943,0.001872,37
1784563970559000,-9.200150,0.035494,3.403690,-0.002860,0.006920,0.002439,38
1784563970569000,-9.205055,0.025865,3.408324,-0.005049,0.008043,0.002993,39
1784563970579000,-9.200117,0.016309,3.403616,-0.005025,0.006909,0.001949,40
1784563970589000,-9.205022,0.006680,3.408249,-0.004445,0.005767,0.001953,41
1784563970599000,-9.200324,-0.007731,3.413120,-0.004454,0.005773,0.001425,42
1784563970609000,-9.205146,0.006651,3.413048,-0.006011,0.004041,0.001474,43
1784563970619000,-9.218655,0.002035,3.379058,-0.007029,0.002313,0.001513,44
1784563970629000,-9.228381,0.006787,3.383619,-0.007449,-0.000568,0.002613,45
1784563970639000,-9.228131,0.006845,3.374023,-0.006817,-0.003423,0.002109,46
1784563970649000,-9.208978,0.026060,3.374608,-0.005715,-0.004549,0.001046,47
1784563970659000,-9.198985,0.011773,3.360413,-0.004657,-0.003968,0.001020,48
1784563970669000,-9.198869,0.016598,3.355634,-0.004216,-0.001659,-0.000074,49
1784563970680000,-9.170337,0.016585,3.365996,-0.007988,-0.002250,-0.001056,50
1784563970690000,-9.175374,0.011723,3.375447,-0.011238,-0.001147,0.000573,51
1784563970700000,-9.165780,0.011738,3.375702,-0.013413,-0.001152,-0.000445,52
1784563970710000,-9.170719,0.021294,3.380410,-0.014013,0.000563,-0.000455,53
1784563970720000,-9.175598,-0.002723,3.384987,-0.012433,0.001160,-0.001548,54
1784563970730000,-9.175965,-0.007607,3.399364,-0.009768,0.002322,-0.001081,55
1784563970740000,-9.175732,0.002044,3.389804,-0.009948,0.006918,-0.002192,56
1784563970750000,-9.175957,-0.012403,3.399345,-0.008965,0.010348,-0.000666,57
1784563970760000,-9.175715,-0.007549,3.389767,-0.010195,0.014357,-0.001222,58
1784563970770000,-9.185042,-0.017098,3.379878,-0.010296,0.017222,-0.001256,59
1784563970780000,-9.180504,-0.012352,3.389621,-0.010876,0.018364,-0.001260,60
1784563970790000,-9.190123,0.002022,3.389421,-0.010389,0.020081,-0.000761,61
1784563970800000,-9.199068,-0.012237,3.365119,-0.010372,0.020070,0.000296,62
1784563970810000,-9.208944,0.006875,3.374534,-0.009313,0.020651,0.000270,63
1784563970820000,-9.194313,0.011752,3.365339,-0.007153,0.020107,-0.000819,64
1784563970830000,-9.199093,0.002152,3.365174,-0.006133,0.021273,-0.001908,65
1784563970840000,-9.194171,0.002188,3.360504,-0.005066,0.021849,-0.001406,66
1784563970850000,-9.198568,-0.012121,3.345926,-0.006222,0.023572,-0.002464,67
1784563970860000,-9.208421,-0.007398,3.355285,-0.005715,0.024716,-0.001958,68
1784563970870000,-9.194138,-0.016997,3.360430,-0.005187,0.025288,-0.001446,69
1784563970880000,-9.184909,-0.021865,3.375061,-0.002552,0.027028,-0.001515,70
1784563970890000,-9.189839,-0.017105,3.379750,-0.002120,0.029342,-0.003137,71
1784563970900000,-9.208270,-0.021758,3.350431,-0.003239,0.030480,-0.003131,72
1784563970910000,-9.217463,-0.036074,3.335725,-0.003201,0.029895,-0.002067,73
1784563970920000,-9.212684,-0.026474,3.335890,-0.000943,0.027047,-0.002072,74
1784563970930000,-9.217257,-0.012035,3.326222,0.000687,0.026492,-0.002623,75
1784563970940000,-9.231523,-0.012028,3.321040,0.005523,0.026542,-0.003767,76
1784563970950000,-9.231514,-0.016825,3.321022,0.007724,0.024852,-0.004842,77
1784563970960000,-9.231256,-0.021563,3.311407,0.007666,0.026010,-0.005912,78
1784563970970000,-9.240858,-0.016781,3.311170,0.007109,0.026018,-0.006960,79
1784563970980000,-9.240441,-0.040676,3.296682,0.006573,0.025452,-0.008000,80
1784563970990000,-9.240617,-0.011927,3.301592,0.004938,0.025451,-0.009028,81
1784563971000000,-9.255133,-0.011979,3.306007,0.004912,0.025469,-0.010614,82
1784563971010000,-9.259688,-0.007132,3.296301,0.005512,0.023754,-0.010603,83
1784563971020000,-9.254659,0.002526,3.286870,0.005143,0.019159,-0.010012,84
1784563971030000,-9.259348,0.012140,3.281981,0.004143,0.017420,-0.008915,85
1784563971040000,-9.259365,0.021733,3.282018,0.000478,0.014519,-0.008286,86
1784563971050000,-9.259631,0.031267,3.291651,-0.002642,0.012177,-0.006087,87
1784563971060000,-9.255075,0.026421,3.301357,-0.006840,0.009827,-0.003869,88
1784563971070000,-9.264902,0.016755,3.310661,-0.009467,0.008081,-0.003272,89
1784563971080000,-9.240792,0.016821,3.306501,-0.012624,0.006324,-0.002137,90
1784563971090000,-9.231207,0.021632,3.306776,-0.014793,0.006874,-0.001577,91
1784563971100000,-9.226617,-0.002399,3.316407,-0.015785,0.005129,0.000048,92
1784563971110000,-9.236203,-0.007210,3.316133,-0.018991,0.004524,0.000641,93
1784563971120000,-9.221570,-0.002334,3.306938,-0.020038,0.003375,0.000146,94
1784563971130000,-9.226002,0.002542,3.292434,-0.020569,0.003365,0.000684,95
1784563971140000,-9.240252,-0.007044,3.287216,-0.021754,0.005667,-0.000909,96
1784563971150000,-9.240368,-0.011869,3.291995,-0.021754,0.005667,-0.000909,97
1784563971160000,-9.244565,0.002657,3.267932,-0.023311,0.003935,-0.000860,98
1784563971170000,-9.244540,-0.011732,3.267876,-0.021699,0.003392,-0.002468,99
1784563971180000,-9.249204,-0.016506,3.262932,-0.021716,0.003404,-0.003525,100
1784563971190000,-9.258316,-0.006813,3.243520,-0.023233,0.000526,-0.003462,101
1784563971200000,-9.268392,-0.016536,3.262421,-0.023163,-0.001199,-0.002914,102
1784563971210000,-9.267776,-0.011595,3.238448,-0.025787,-0.003507,-0.003367,103
1784563971220000,-9.268534,-0.006973,3.267256,-0.026773,-0.006375,-0.003843,104
1784563971230000,-9.263478,-0.011704,3.257769,-0.028837,-0.009251,-0.004299,105
1784563971240000,-9.258940,-0.006958,3.267512,-0.029797,-0.012137,-0.003189,106
1784563971250000,-9.263586,-0.021325,3.262530,-0.033012,-0.012735,-0.003125,107
1784563971260000,-9.249596,-0.007001,3.277364,-0.034575,-0.013345,-0.000975,108
1784563971270000,-9.249703,-0.016622,3.282125,-0.034996,-0.016227,0.000125,109
1784563971280000,-9.240217,-0.026229,3.287142,-0.037651,-0.017394,0.000187,110
1784563971290000,-9.249945,-0.021477,3.291703,-0.041986,-0.016855,0.000257,111
1784563971300000,-9.264177,-0.040655,3.286447,-0.045222,-0.016880,0.000315,112
1784563971310000,-9.259505,-0.040677,3.291373,-0.047872,-0.017492,0.001955,113
1784563971320000,-9.245346,-0.050305,3.301316,-0.049469,-0.018078,0.001991,114
1784563971330000,-9.240283,-0.059832,3.291810,-0.049374,-0.019821,0.004125,115
1784563971340000,-9.225742,-0.074169,3.287339,-0.050435,-0.019842,0.005201,116
1784563971350000,-9.226357,-0.079110,3.311312,-0.050977,-0.019285,0.006261,117
1784563971360000,-9.197818,-0.083920,3.321656,-0.049931,-0.018136,0.006757,118
1784563971370000,-9.197818,-0.083920,3.321656,-0.047785,-0.017552,0.007240,119
1784563971380000,-9.202498,-0.079102,3.316749,-0.045173,-0.014677,0.008216,120
1784563971390000,-9.197443,-0.083833,3.307261,-0.043097,-0.012368,0.008150,121
1784563971400000,-9.211825,-0.088652,3.306859,-0.043732,-0.008951,0.009705,122
1784563971410000,-9.211700,-0.088623,3.302061,-0.046582,-0.004394,0.010228,123
1784563971420000,-9.197193,-0.083775,3.297665,-0.046597,-0.003265,0.011800,124
1784563971430000,-9.206646,-0.093354,3.292574,-0.045037,-0.002095,0.010701,125
1784563971440000,-9.206796,-0.078994,3.297428,-0.041830,-0.001490,0.010108,126
1784563971450000,-9.235818,-0.083893,3.306239,-0.039751,0.000258,0.008992,127
1784563971460000,-9.250175,-0.103100,3.305782,-0.038676,0.000828,0.010023,128
1784563971470000,-9.259387,-0.107824,3.291113,-0.038603,-0.001459,0.009521,129
1784563971480000,-9.264150,-0.127017,3.290911,-0.036872,-0.004879,0.009004,130
1784563971490000,-9.244863,-0.112569,3.286680,-0.032445,-0.008277,0.008439,131
1784563971500000,-9.235118,-0.126914,3.282081,-0.029166,-0.009959,0.007344,132
1784563971510000,-9.230438,-0.131732,3.286989,-0.024857,-0.010480,0.005688,133
1784563971520000,-9.220961,-0.136542,3.292024,-0.021676,-0.009858,0.003510,134
1784563971530000,-9.212016,-0.122283,3.316326,-0.021183,-0.009263,0.001908,135
1784563971540000,-9.221526,-0.098288,3.311365,-0.020719,-0.008089,-0.000229,136
1784563971550000,-9.216907,-0.069532,3.316402,-0.020826,-0.005779,-0.001842,137
1784563971560000,-9.211976,-0.074292,3.311713,-0.019748,-0.005770,-0.001861,138
1784563971570000,-9.221869,-0.045587,3.321166,-0.018081,-0.006910,-0.001348,139
1784563971580000,-9.212117,-0.064728,3.316549,-0.018040,-0.008056,-0.001335,140
