time,accel_x,accel_y,accel_z,gyro_x,gyro_y,gyro_z,frame_number
1784563959925000,-3.705896,4.748250,7.729690,-0.011729,-0.019190,0.016067,2
1784563959935000,-3.696603,4.724151,7.724932,-0.007950,-0.015517,0.015978,3
1784563959945000,-3.696705,4.733640,7.710495,-0.009573,-0.015513,0.013873,4
1784563959955000,-3.701083,4.743443,7.734443,-0.009548,-0.013387,0.013860,5
1784563959965000,-3.691541,4.738558,7.734336,-0.005806,-0.012376,0.013254,6
1784563959975000,-3.705840,4.733966,7.744162,-0.004780,-0.015056,0.012184,7
1784563959985000,-3.691384,4.748181,7.739056,-0.000594,-0.020972,0.010544,8
1784563959995000,-3.720474,4.748285,7.715535,-0.003839,-0.025180,0.011160,9
1784563960005000,-3.691800,4.738423,7.715178,-0.003832,-0.027809,0.014910,10
1784563960015000,-3.724768,4.753360,7.749096,-0.006471,-0.029859,0.020304,11
1784563960025000,-3.682017,4.738433,7.729404,-0.007026,-0.033558,0.022470,12
1784563960035000,-3.686617,4.738579,7.743844,-0.010753,-0.035611,0.025749,13
1784563960045000,-3.667153,4.748088,7.757858,-0.008081,-0.036696,0.027308,14
1784563960055000,-3.667504,4.738364,7.738770,-0.007537,-0.037222,0.028902,15
1784563960065000,-3.681887,4.738500,7.738983,-0.008645,-0.038820,0.026798,16
1784563960075000,-3.648197,4.738250,7.748064,-0.006503,-0.037789,0.026220,17
1784563960085000,-3.647957,4.743145,7.762398,-0.005415,-0.034098,0.024045,18
1784563960095000,-3.647865,4.752735,7.762328,-0.005943,-0.034086,0.024588,19
1784563960105000,-3.643089,4.757452,7.757433,-0.002204,-0.031497,0.021838,20
1784563960115000,-3.614970,4.723448,7.733304,-0.003801,-0.028839,0.019184,21
1784563960125000,-3.628641,4.757349,7.762010,-0.003229,-0.024074,0.017545,22
1784563960135000,-3.609640,4.752306,7.752182,-0.001588,-0.018795,0.015350,23
1784563960145000,-3.628974,4.742864,7.747746,-0.002650,-0.014561,0.011076,24
1784563960155000,-3.624069,4.747647,7.752429,0.000052,-0.009300,0.008330,25
1784563960165000,-3.623939,4.747714,7.762008,0.000614,-0.004542,0.005624,26
1784563960175000,-3.619497,4.737945,7.742849,-0.000461,-0.002427,0.002430,27
1784563960185000,-3.628964,4.723785,7.762252,0.002238,0.000197,0.002366,28
1784563960195000,-3.619145,4.747669,7.761937,0.002786,0.002836,0.000741,29
1784563960205000,-3.628891,4.738136,7.757359,0.002799,0.004954,-0.000339,30
1784563960215000,-3.623939,4.747714,7.762008,0.003358,0.007601,-0.000898,31
1784563960225000,-3.628964,4.723785,7.762252,0.003911,0.010244,-0.001991,32
1784563960235000,-3.624096,4.738091,7.757288,0.004459,0.012883,-0.003616,33
1784563960245000,-3.571535,4.732730,7.746963,0.010371,0.019162,-0.006960,34
1784563960255000,-3.609575,4.752339,7.756971,0.013080,0.026009,-0.010783,35
1784563960265000,-3.628244,4.771868,7.781063,0.014184,0.032874,-0.015111,36
1784563960275000,-3.595303,4.747375,7.752003,0.017921,0.038096,-0.021077,37
1784563960285000,-3.629123,4.747558,7.733343,0.016889,0.043933,-0.024294,38
1784563960295000,-3.594989,4.766621,7.761443,0.024917,0.052805,-0.032491,39
1784563960305000,-3.628734,4.747759,7.762079,0.024944,0.060730,-0.038940,40
1784563960315000,-3.672039,4.738544,7.757998,0.025979,0.061219,-0.042696,41
1784563960325000,-3.700870,4.738783,7.753635,0.023280,0.058595,-0.042633,42
1784563960335000,-3.734560,4.739033,7.744554,0.023816,0.055955,-0.039426,43
1784563960345000,-3.758994,4.724706,7.721066,0.020043,0.048598,-0.034514,44
1784563960355000,-3.748934,4.753486,7.735084,0.017332,0.040695,-0.029617,45
1784563960365000,-3.749091,4.743862,7.730364,0.016247,0.035426,-0.025299,46
1784563960375000,-3.744473,4.738955,7.720749,0.011953,0.029139,-0.020384,47
1784563960385000,-3.758699,4.748714,7.725682,0.009795,0.023879,-0.016580,48
1784563960395000,-3.758939,4.743818,7.711349,0.007631,0.018087,-0.012773,49
1784563960405000,-3.739586,4.748499,7.720609,0.005468,0.013351,-0.010039,50
1784563960415000,-3.720474,4.748285,7.715535,0.004393,0.011251,-0.008407,51
1784563960425000,-3.715707,4.738683,7.720323,0.002262,0.010228,-0.006763,52
1784563960435000,-3.676909,4.757634,7.738773,0.004920,0.010712,-0.008413,53
1784563960445000,-3.701259,4.738581,7.724899,0.004389,0.012829,-0.010550,54
1784563960455000,-3.720399,4.729240,7.734831,0.007066,0.014909,-0.012211,55
1784563960465000,-3.734598,4.748555,7.734906,0.008678,0.015424,-0.011709,56
1784563960475000,-3.730228,4.724434,7.720640,0.009205,0.013830,-0.010642,57
1784563960485000,-3.734773,4.743693,7.725362,0.008128,0.011202,-0.008473,58
1784563960495000,-3.753710,4.748770,7.739979,0.008647,0.008022,-0.006330,59
1784563960505000,-3.744389,4.734227,7.730362,0.009173,0.006428,-0.005263,60
1784563960515000,-3.734838,4.743659,7.720572,0.006509,0.005412,-0.003609,61
1784563960525000,-3.729998,4.748409,7.720467,0.007563,0.003808,-0.003085,62
1784563960535000,-3.725157,4.753158,7.720361,0.006518,0.004365,-0.001469,63
1784563960546000,-3.730201,4.733991,7.715781,0.007046,0.003827,-0.001475,64
1784563960556000,-3.725249,4.743568,7.720430,0.008123,0.003294,0.000109,65
1784563960566000,-3.725074,4.748431,7.729974,0.010259,0.004321,-0.001002,66
1784563960576000,-3.715466,4.743579,7.734656,0.009198,0.004867,-0.000986,67
1784563960586000,-3.725092,4.753192,7.725150,0.010259,0.004321,-0.001002,68
1784563960596000,-3.715439,4.753135,7.729797,0.010271,0.004857,-0.000472,69
1784563960606000,-3.739484,4.739011,7.735046,0.007614,0.005955,-0.000431,70
1784563960616000,-3.725000,4.762782,7.725081,0.007631,0.006495,0.000633,71
1784563960626000,-3.715615,4.748273,7.720253,0.007079,0.004907,0.000652,72
1784563960636000,-3.730062,4.748375,7.715677,0.007080,0.005434,0.000115,73
1784563960646000,-3.734727,4.748488,7.725327,0.006535,0.004905,-0.000405,74
1784563960656000,-3.739494,4.758089,7.720539,0.006011,0.004393,0.001208,75
1784563960666000,-3.730173,4.743546,7.710923,0.006544,0.003859,0.001735,76
1784563960676000,-3.725287,4.753091,7.710782,0.004930,0.002289,0.002306,77
1784563960686000,-3.730127,4.748342,7.710888,0.006004,0.002806,0.002284,78
1784563960696000,-3.720446,4.757841,7.710677,0.004402,0.002300,0.002849,79
1784563960706000,-3.734700,4.758044,7.720469,0.005481,0.002822,0.003360,80
1784563960716000,-3.734700,4.758044,7.720469,0.004926,0.002812,0.001236,81
1784563960726000,-3.729970,4.757965,7.715608,0.005998,0.002802,0.001751,82
1784563960736000,-3.729748,4.767622,7.725117,0.005459,0.002278,0.001763,83
1784563960746000,-3.724990,4.743703,7.739588,0.006004,0.003334,0.001747,84
1784563960756000,-3.734654,4.762838,7.720434,0.005992,0.001743,0.002290,85
1784563960766000,-3.739734,4.753193,7.706206,0.004395,0.001241,0.003389,86
1784563960776000,-3.739734,4.753193,7.706206,0.003849,-0.000343,0.003941,87
1784563960786000,-3.734940,4.753148,7.706135,0.004376,-0.000882,0.003935,88
1784563960796000,-3.739716,4.748432,7.711030,0.002762,-0.002452,0.004507,89
1784563960806000,-3.744464,4.753272,7.711066,0.001689,-0.002970,0.004529,90
1784563960816000,-3.739624,4.758022,7.710960,0.002216,-0.003508,0.004523,91
1784563960826000,-3.739624,4.758022,7.710960,-0.000459,-0.004533,0.005110,92
1784563960836000,-3.730016,4.753170,7.715642,-0.001521,-0.004515,0.005662,93
1784563960846000,-3.729924,4.762760,7.715573,0.000608,-0.005074,0.005627,94
1784563960856000,-3.729998,4.748409,7.720467,-0.001532,-0.005050,0.005132,95
1784563960866000,-3.729849,4.743715,7.734869,-0.001525,-0.003991,0.004592,96
1784563960876000,-3.720641,4.757740,7.696309,0.001180,-0.000836,0.004525,97
1784563960886000,-3.725167,4.772237,7.705854,-0.003160,-0.008739,0.006783,98
1784563960896000,-3.710728,4.757817,7.720113,0.000078,-0.006118,0.007244,99
1784563960906000,-3.725425,4.738707,7.710886,0.000626,-0.004007,0.006154,100
1784563960916000,-3.715615,4.748273,7.720253,0.000616,-0.007176,0.008841,101
1784563960926000,-3.725084,4.767509,7.715467,0.000071,-0.007705,0.008320,102
1784563960936000,-3.730100,4.757898,7.706029,-0.000463,-0.007698,0.008329,103
1784563960946000,-3.715698,4.753000,7.710640,-0.001548,-0.008751,0.007822,104
1784563960956000,-3.720178,4.772292,7.720151,-0.002608,-0.007151,0.006764,105
1784563960966000,-3.715587,4.757829,7.715395,-0.001550,-0.006645,0.005142,106
1784563960976000,-3.705888,4.762567,7.720007,-0.000998,-0.004530,0.004586,107
1784563960986000,-3.701223,4.762454,7.710358,0.000610,-0.003492,0.004018,108
1784563960996000,-3.691551,4.757636,7.719829,0.000067,-0.002438,0.001887,109
1784563961006000,-3.706026,4.748182,7.720111,0.001675,-0.001400,0.001319,110
1784563961016000,-3.705823,4.762600,7.724797,0.002738,-0.000890,0.000230,111
1784563961026000,-3.725138,4.748397,7.725185,0.002749,-0.000354,0.000760,112
1784563961036000,-3.710663,4.757851,7.724903,0.003277,-0.000365,0.000217,113
1784563961046000,-3.715420,4.748374,7.734622,0.003805,-0.000904,0.000211,114
1784563961056000,-3.715577,4.738750,7.729901,0.004901,0.000685,0.001249,115
1784563961066000,-3.701056,4.752999,7.729585,0.005429,0.000147,0.001243,116
1784563961076000,-3.710885,4.748194,7.715393,0.007031,0.001181,0.000141,117
1784563961086000,-3.701139,4.757727,7.719971,0.007026,0.001177,-0.000392,118
1784563961096000,-3.715615,4.748273,7.720253,0.006516,0.002783,0.000141,119
1784563961106000,-3.725157,4.753158,7.720361,0.005437,0.002261,-0.000370,120
1784563961116000,-3.710571,4.767441,7.724833,0.005976,0.002258,0.000154,121
1784563961126000,-3.720455,4.743523,7.720359,0.005442,0.002265,0.000163,122
1784563961136000,-3.729905,4.757998,7.720397,0.004897,0.001209,0.000179,123
1784563961146000,-3.725157,4.753158,7.720361,0.004890,0.000677,0.000182,124
1784563961156000,-3.729998,4.748409,7.720467,0.004903,0.001740,0.000176,125
1784563961166000,-3.710756,4.748261,7.724972,0.004351,0.000152,0.000195,126
1784563961176000,-3.720224,4.767498,7.720186,0.004363,0.001216,0.000189,127
1784563961186000,-3.715633,4.753034,7.715429,0.003289,0.000698,0.000211,128
1784563961196000,-3.720114,4.772326,7.724941,0.003283,0.000166,0.000214,129
1784563961206000,-3.720187,4.757975,7.729834,0.003817,0.000159,0.000205,130
1784563961216000,-3.725111,4.757953,7.720326,0.003828,0.000168,0.001271,131
1784563961226000,-3.720122,4.758009,7.734623,0.003828,0.000168,0.001271,132
1784563961236000,-3.724935,4.762815,7.729870,0.004368,0.001220,0.000722,133
1784563961246000,-3.720252,4.757942,7.725045,0.004902,0.001213,0.000713,134
1784563961256000,-3.715503,4.753101,7.725008,0.005442,0.001738,0.000700,135
1784563961266000,-3.725176,4.757920,7.715537,0.004897,0.001209,0.000179,136
1784563961276000,-3.715679,4.748240,7.715464,0.005970,0.001727,0.000157,137
1784563961286000,-3.725019,4.767543,7.720257,0.004902,0.001213,0.000713,138
1784563961296000,-3.720317,4.757908,7.720255,0.004896,0.000681,0.000716,139
1784563961306000,-3.730035,4.757931,7.710819,0.003834,0.000699,0.001268,140
1784563961316000,-3.720400,4.762635,7.710642,0.004351,0.000152,0.000195,141
1784563961326000,-3.734719,4.762805,7.715644,0.002761,0.000709,0.000754,142
1784563961336000,-3.725287,4.753091,7.710782,0.002748,-0.000882,0.001297,143
1784563961346000,-3.715652,4.757795,7.710606,0.002738,-0.000363,-0.000307,144
1784563961356000,-3.710858,4.757750,7.710535,0.003270,-0.001424,0.000757,145
1784563961366000,-3.710571,4.767441,7.724833,0.003277,-0.000365,0.000217,146
1784563961376000,-3.710598,4.757885,7.729692,0.003291,0.001753,-0.000862,147
1784563961386000,-3.734792,4.748454,7.720538,0.002746,0.001224,-0.001383,148
1784563961396000,-3.758764,4.748681,7.720893,0.002242,0.003362,-0.000853,149
1784563961406000,-3.725425,4.738707,7.710886,0.005417,-0.000916,0.001249,150
1784563961416000,-3.720095,4.767565,7.729764,0.003822,0.000164,0.000738,151
1784563961426000,-3.710812,4.762545,7.710500,0.006491,0.000656,0.000154,152
1784563961436000,-3.715568,4.753067,7.720219,0.004879,0.000141,-0.000348,153
1784563961446000,-3.715522,4.757863,7.720184,0.004891,0.001205,-0.000354,154
1784563961456000,-3.710571,4.767441,7.724833,0.005970,0.001727,0.000157,155
1784563961466000,-3.715633,4.753034,7.715429,0.005977,0.002786,-0.000383,156
1784563961476000,-3.715300,4.767519,7.729693,0.007032,0.001709,-0.000395,157
1784563961486000,-3.696326,4.752920,7.724724,0.009702,0.002729,-0.001516,158
1784563961496000,-3.715707,4.738683,7.720323,0.008107,0.003281,-0.001491,159
1784563961506000,-3.725019,4.767543,7.720257,0.010225,0.003241,-0.003129,160
1784563961516000,-3.705731,4.772190,7.724728,0.011328,0.005362,-0.002094,161
1784563961526000,-3.710969,4.752922,7.705780,0.010246,0.006419,-0.004748,162
1784563961536000,-3.710636,4.767407,7.720044,0.012380,0.006391,-0.004786,163
1784563961546000,-3.715449,4.772213,7.715291,0.009711,0.005898,-0.004202,164
1784563961556000,-3.720354,4.767430,7.710607,0.009694,0.004831,-0.004729,165
1784563961566000,-3.710452,4.786586,7.719905,0.009688,0.004827,-0.005262,166
1784563961577000,-3.754071,4.758124,7.706384,0.008626,0.004845,-0.004710,167
1784563961587000,-3.724945,4.781894,7.715364,0.009157,0.002728,-0.002573,168
1784563961597000,-3.710701,4.767374,7.715254,0.008619,0.003258,-0.003634,169
1784563961607000,-3.691791,4.752740,7.705496,0.011308,0.006928,-0.005837,170
1784563961617000,-3.666989,4.805425,7.728706,0.015608,0.013747,-0.010755,171
1784563961627000,-3.691237,4.776883,7.729269,0.017700,0.013686,-0.015060,172
1784563961637000,-3.705582,4.767496,7.739130,0.015509,0.011562,-0.018210,173
1784563961647000,-3.739513,4.762850,7.715715,0.017667,0.013134,-0.017724,174
1784563961657000,-3.725398,4.748263,7.706028,0.020359,0.014698,-0.017247,175
1784563961667000,-3.725278,4.767408,7.701099,0.021434,0.016271,-0.018343,176
1784563961677000,-3.706082,4.762466,7.705639,0.030529,0.020913,-0.021733,177
1784563961687000,-3.759004,4.743785,7.706559,0.028418,0.023067,-0.021708,178
1784563961697000,-3.739115,4.777369,7.734769,0.033749,0.022466,-0.021800,179
1784563961707000,-3.739902,4.762649,7.686979,0.030002,0.021979,-0.022263,180
1784563961717000,-3.758570,4.782177,7.711071,0.027871,0.020956,-0.020619,181
1784563961727000,-3.763356,4.796540,7.701460,0.031082,0.019868,-0.018536,182
1784563961737000,-3.783199,4.767751,7.673216,0.026238,0.017263,-0.019501,183
1784563961747000,-3.772991,4.791835,7.701636,0.024640,0.015706,-0.017330,184
1784563961757000,-3.773407,4.782078,7.677760,0.024663,0.016250,-0.015733,185
1784563961767000,-3.778193,4.796441,7.668148,0.020891,0.013636,-0.016184,186
1784563961777000,-3.783023,4.772613,7.682760,0.019818,0.009430,-0.011872,187
1784563961787000,-3.773112,4.806086,7.682375,0.016621,0.008948,-0.010745,188
1784563961797000,-3.773185,4.791735,7.687268,0.013938,0.006337,-0.009081,189
1784563961807000,-3.768290,4.815597,7.677446,0.010178,0.003731,-0.008466,190
1784563961817000,-3.773185,4.791735,7.687268,0.006973,0.002191,-0.006799,191
1784563961827000,-3.782830,4.806109,7.672939,0.004836,0.000108,-0.004615,192
1784563961837000,-3.758894,4.782009,7.687125,0.002143,-0.001984,-0.004554,193
1784563961847000,-3.787827,4.791737,7.668324,0.000019,-0.002475,-0.002913,194
1784563961857000,-3.763726,4.791577,7.677548,-0.001051,-0.004044,-0.001284,195
1784563961867000,-3.763707,4.786816,7.682372,-0.001583,-0.002982,-0.002348,196
1784563961877000,-3.758978,4.786737,7.677512,-0.001589,-0.003514,-0.002345,197
1784563961887000,-3.758894,4.782009,7.687125,-0.001578,-0.002978,-0.001815,198
1784563961897000,-3.763883,4.781953,7.672828,-0.002657,-0.004027,-0.001789,199
1784563961907000,-3.768529,4.777305,7.687301,-0.002105,-0.002439,-0.001809,200
1784563961917000,-3.768548,4.782066,7.682477,-0.002113,-0.004026,-0.000732,201
1784563961927000,-3.758700,4.782110,7.701493,-0.004259,-0.004534,-0.001224,202
1784563961937000,-3.768326,4.791723,7.691987,-0.002124,-0.004034,-0.001799,203
1784563961947000,-3.749325,4.786680,7.682158,-0.001601,-0.004049,-0.002875,204
1784563961957000,-3.758949,4.762897,7.696842,-0.000000,-0.004598,-0.002367,205
1784563961967000,-3.758830,4.782043,7.691914,-0.001072,-0.003533,-0.003955,206
1784563961977000,-3.768510,4.772543,7.692125,-0.000545,-0.004599,-0.003424,207
1784563961987000,-3.768418,4.782133,7.692056,-0.002650,-0.002968,-0.002329,208
1784563961997000,-3.768372,4.786928,7.692021,-0.003208,-0.004560,-0.002843,209
1784563962007000,-3.768575,4.772510,7.687336,-0.004283,-0.006661,-0.001211,210
1784563962017000,-3.768400,4.777372,7.696880,-0.003198,-0.005079,-0.001240,211
1784563962027000,-3.739542,4.786690,7.696384,-0.004792,-0.003999,-0.001752,212
1784563962037000,-3.763735,4.777260,7.687230,-0.005863,-0.002935,-0.003339,213
1784563962047000,-3.773259,4.777384,7.692162,-0.006403,-0.003459,-0.003327,214
1784563962057000,-3.768529,4.777305,7.687301,-0.005876,-0.004526,-0.002796,215
1784563962067000,-3.773434,4.772521,7.682618,-0.008017,-0.005029,-0.002755,216
1784563962077000,-3.754100,4.781964,7.687054,-0.008545,-0.005018,-0.002212,217
1784563962087000,-3.768492,4.767783,7.696949,-0.010693,-0.006581,-0.001631,218
1784563962097000,-3.773397,4.762999,7.692266,-0.010154,-0.007112,-0.000571,219
1784563962107000,-3.758968,4.767658,7.692018,-0.011756,-0.007618,-0.000006,220
1784563962117000,-3.768538,4.762988,7.696984,-0.011227,-0.007102,-0.001085,221
1784563962127000,-3.763928,4.743763,7.697052,-0.011228,-0.007630,-0.000549,222
1784563962137000,-3.768492,4.767783,7.696949,-0.008547,-0.006601,-0.000602,223
1784563962147000,-3.744234,4.777246,7.710893,-0.007479,-0.006087,-0.001158,224
1784563962157000,-3.754312,4.753228,7.692051,-0.007483,-0.005036,-0.002765,225
1784563962167000,-3.749296,4.762840,7.701489,-0.007455,-0.003961,-0.001171,226
1784563962177000,-3.739624,4.758022,7.710960,-0.005330,-0.003469,-0.002812,227
1784563962187000,-3.758977,4.753341,7.701701,-0.003729,-0.002962,-0.003377,228
1784563962197000,-3.763863,4.743796,7.701841,-0.005344,-0.005587,-0.001732,229
1784563962207000,-3.763392,4.772666,7.716001,-0.003729,-0.003490,-0.002841,230
1784563962217000,-3.758931,4.758136,7.701666,-0.003736,-0.004549,-0.002301,231
1784563962227000,-3.754071,4.758124,7.706384,-0.004275,-0.004546,-0.002825,232
1784563962237000,-3.758709,4.767793,7.711175,-0.003731,-0.004545,-0.001767,233
1784563962247000,-3.749545,4.743627,7.696838,-0.004254,-0.004530,-0.000691,234
1784563962257000,-3.744529,4.753239,7.706277,-0.004265,-0.005066,-0.001221,235
1784563962267000,-3.758996,4.758102,7.696877,-0.002113,-0.004026,-0.000732,236
1784563962277000,-3.725481,4.752990,7.696414,-0.001590,-0.004041,-0.001808,237
1784563962287000,-3.758912,4.753375,7.706490,-0.002650,-0.002968,-0.002329,238
1784563962297000,-3.734940,4.753148,7.706135,-0.001031,-0.001394,-0.002367,239
1784563962307000,-3.744667,4.738854,7.706381,-0.000497,-0.000873,-0.002913,240
1784563962317000,-3.768500,4.753465,7.706632,0.000577,-0.000356,-0.002936,241
1784563962327000,-3.758810,4.743886,7.720927,0.001099,-0.000898,-0.003475,242
1784563962337000,-3.744399,4.753306,7.715856,0.003784,-0.000393,-0.002459,243
1784563962347000,-3.749397,4.738933,7.711241,0.003256,-0.000382,-0.001916,244
1784563962357000,-3.749083,4.758180,7.720681,0.003806,0.000151,-0.000862,245
1784563962367000,-3.749323,4.753284,7.706348,0.007020,0.001173,-0.000925,246
1784563962377000,-3.758893,4.748613,7.711314,0.007554,0.001166,-0.000935,247
1784563962387000,-3.768371,4.753532,7.716211,0.005972,0.003309,-0.001453,248
1784563962397000,-3.763779,4.739069,7.711454,0.008106,0.002754,-0.000954,249
1784563962407000,-3.739374,4.777235,7.715611,0.006511,0.003306,-0.000929,250
1784563962417000,-3.778357,4.739104,7.697299,0.007038,0.002240,-0.000399,251
1784563962427000,-3.743974,4.777381,7.730051,0.008087,0.000631,-0.000408,252
1784563962437000,-3.768454,4.758260,7.706597,0.007024,0.000122,0.000681,253
1784563962447000,-3.759115,4.738956,7.701805,0.004890,0.000677,0.000182,254
1784563962457000,-3.768611,4.748637,7.701877,0.004343,-0.001434,0.001272,255
1784563962467000,-3.758949,4.762897,7.696842,0.003808,-0.002482,0.002354,0
1784563962477000,-3.763706,4.753420,7.706561,0.003813,-0.002478,0.002888,1
1784563962487000,-3.749277,4.758079,7.706313,0.003803,-0.002486,0.001821,2
1784563962497000,-3.749185,4.767669,7.706244,0.002741,-0.001941,0.001837,3
1784563962507000,-3.763465,4.758316,7.720894,0.002741,-0.002468,0.002373,4
1784563962517000,-3.749147,4.758146,7.715892,0.002748,-0.001409,0.001833,5
1784563962527000,-3.754071,4.758124,7.706384,0.002746,-0.002464,0.002907,6
1784563962537000,-3.749166,4.762907,7.711068,0.003274,-0.002475,0.002364,7
1784563962547000,-3.744298,4.777213,7.706104,0.003262,-0.003539,0.002370,8
1784563962557000,-3.768547,4.748671,7.706666,0.002207,-0.002461,0.002383,9
1784563962567000,-3.754044,4.767680,7.701526,0.004336,-0.003021,0.002348,10
1784563962577000,-3.758958,4.748580,7.706525,0.003771,-0.005672,0.002374,11
1784563962587000,-3.758838,4.767725,7.701597,0.006982,-0.007288,0.004994,12
1784563962598000,-3.758820,4.762964,7.706421,0.004824,-0.008859,0.004508,13
1784563962608000,-3.758579,4.767860,7.720754,0.005345,-0.009930,0.004505,14
1784563962618000,-3.782809,4.734557,7.726141,0.005859,-0.012586,0.005578,15
1784563962628000,-3.753998,4.772475,7.701491,0.008987,-0.019535,0.006097,16
1784563962638000,-3.787696,4.758408,7.702092,0.001533,-0.018898,0.007293,17
1784563962648000,-3.768538,4.762988,7.696984,-0.001121,-0.019906,0.010014,18
1784563962658000,-3.821673,4.748968,7.678712,-0.006907,-0.017658,0.015972,19
1784563962668000,-3.763476,4.777394,7.706388,-0.010132,-0.022376,0.019258,20
1784563962678000,-3.735467,4.738562,7.677503,-0.014964,-0.028133,0.023113,21
1784563962688000,-3.715200,4.791426,7.719942,-0.018125,-0.025425,0.024220,22
1784563962698000,-3.734727,4.748488,7.725327,-0.017027,-0.022780,0.024185,23
1784563962708000,-3.705961,4.748216,7.724901,-0.015952,-0.021208,0.023089,24
1784563962718000,-3.667690,4.752581,7.714719,-0.013235,-0.016989,0.023016,25
1784563962728000,-3.643405,4.771601,7.723804,-0.014304,-0.013814,0.019282,26
1784563962738000,-3.671486,4.796082,7.757582,-0.011582,-0.005903,0.015452,27
1784563962748000,-3.682046,4.762272,7.710074,-0.011589,-0.003274,0.011702,28
1784563962758000,-3.681454,4.776893,7.743495,-0.009972,0.000406,0.008984,29
1784563962768000,-3.686553,4.772008,7.724443,-0.007828,0.003547,0.006260,30
1784563962778000,-3.691348,4.772054,7.724514,-0.007280,0.006186,0.004634,31
1784563962788000,-3.696326,4.752920,7.724724,-0.007313,0.005106,0.002507,32
1784563962798000,-3.710682,4.762612,7.720078,-0.005711,0.006141,0.001406,33
1784563962808000,-3.725333,4.748296,7.710817,-0.007336,0.004035,0.001447,34
1784563962818000,-3.725027,4.753225,7.729939,-0.006263,0.004553,0.001425,35
1784563962828000,-3.696465,4.738536,7.724828,-0.004138,0.005044,-0.000216,36
1784563962838000,-3.706164,4.733798,7.720215,-0.003622,0.004497,-0.001289,37
1784563962848000,-3.696270,4.738636,7.739196,-0.000957,0.005513,-0.002943,38
1784563962858000,-3.729979,4.743648,7.725291,-0.001501,0.006039,-0.004537,39
1784563962868000,-3.701232,4.748137,7.720040,-0.001483,0.007107,-0.004010,40
1784563962878000,-3.696908,4.719222,7.705809,0.002253,0.011274,-0.008903,41
1784563962888000,-3.734625,4.738999,7.739764,0.002247,0.011270,-0.009436,42
1784563962898000,-3.739770,4.729320,7.720747,0.003828,0.008599,-0.008381,43
1784563962908000,-3.720344,4.748352,7.725114,0.001147,0.007043,-0.007791,44
1784563962918000,-3.739540,4.753294,7.720574,0.001142,0.007039,-0.008324,45
1784563962928000,-3.744121,4.748679,7.739837,0.000043,0.003340,-0.007216,46
1784563962938000,-3.744362,4.743783,7.725503,-0.001039,0.000708,-0.005581,47
1784563962948000,-3.749221,4.743795,7.720785,-0.002656,-0.002972,-0.002863,48
1784563962958000,-3.744186,4.748646,7.735048,-0.002658,-0.004555,-0.001253,49
1784563962968000,-3.753996,4.739079,7.725680,-0.004266,-0.006121,-0.000148,50
1784563962978000,-3.734579,4.743793,7.739730,-0.004802,-0.007696,0.001471,51
1784563962988000,-3.720501,4.738729,7.720394,-0.003730,-0.007706,0.001986,52
1784563962998000,-3.715531,4.743545,7.729867,-0.003201,-0.007717,0.001443,53
1784563963008000,-3.720214,4.748419,7.734693,-0.002133,-0.007203,0.000887,54
1784563963018000,-3.725147,4.734080,7.734868,0.001608,-0.006720,0.000818,55
1784563963028000,-3.715494,4.734023,7.739515,0.007960,-0.010006,-0.000876,56
1784563963038000,-3.729332,4.777380,7.748994,0.006336,-0.010529,-0.002445,57
1784563963048000,-3.705850,4.753044,7.729656,0.004196,-0.011033,-0.002404,58
1784563963058000,-3.715466,4.743579,7.734656,0.002072,-0.010997,-0.001299,59
1784563963068000,-3.729849,4.743715,7.734869,0.001028,-0.009384,-0.000756,60
1784563963078000,-3.705961,4.748216,7.724901,-0.001089,-0.008289,-0.000192,61
1784563963088000,-3.720279,4.748385,7.729903,-0.001088,-0.007761,-0.000728,62
1784563963098000,-3.734505,4.758145,7.734837,-0.002662,-0.007192,0.001430,63
1784563963108000,-3.715439,4.753135,7.729797,-0.003196,-0.007713,0.001976,64
1784563963118000,-3.720455,4.743523,7.720359,-0.006938,-0.008723,0.002582,65
1784563963128000,-3.734690,4.738966,7.734975,-0.009052,-0.009207,0.005290,66
1784563963138000,-3.715512,4.738784,7.734691,-0.010109,-0.009712,0.006913,67
1784563963148000,-3.710829,4.733910,7.729865,-0.011716,-0.009695,0.006408,68
1784563963158000,-3.705905,4.733932,7.739373,-0.011699,-0.009155,0.007471,69
1784563963168000,-3.710727,4.724422,7.744303,-0.010619,-0.008106,0.007446,70
1784563963178000,-3.710561,4.748362,7.739340,-0.011153,-0.008099,0.007455,71
1784563963188000,-3.700908,4.748305,7.743987,-0.010063,-0.007041,0.008497,72
1784563963198000,-3.691660,4.719412,7.739264,-0.008993,-0.004945,0.006331,73
1784563963208000,-3.701027,4.729159,7.748915,-0.006305,-0.002857,0.005737,74
1784563963218000,-3.691411,4.738625,7.743915,-0.006838,-0.002323,0.005210,75
1784563963228000,-3.681998,4.733672,7.734229,-0.005235,-0.000761,0.003572,76
1784563963238000,-3.691411,4.738625,7.743915,-0.004160,0.001339,0.001940,77
1784563963248000,-3.696067,4.753055,7.743882,-0.002017,0.003425,0.000289,78
1784563963258000,-3.701240,4.733819,7.729723,-0.001496,0.001828,0.000823,79
1784563963268000,-3.705775,4.733999,7.748951,-0.003631,0.001328,0.001397,80
1784563963278000,-3.705775,4.733999,7.748951,-0.002569,0.001837,0.000308,81
1784563963288000,-3.700916,4.733988,7.753669,-0.002047,0.000767,0.000305,82
1784563963298000,-3.696279,4.724319,7.748878,-0.002581,0.000774,0.000315,83
1784563963308000,-3.715326,4.724567,7.758741,-0.000975,0.000230,0.001356,84
1784563963318000,-3.705914,4.719615,7.749055,-0.001520,-0.000299,0.000836,85
1784563963328000,-3.715105,4.734224,7.768250,0.001153,-0.000329,0.001322,86
1784563963338000,-3.720259,4.710228,7.758916,0.002708,-0.003021,-0.000290,87
1784563963348000,-3.696011,4.738771,7.758353,0.004836,-0.003580,-0.000325,88
1784563963358000,-3.710700,4.733977,7.739444,0.004296,-0.004632,0.000224,89
1784563963368000,-3.705767,4.748317,7.739269,0.004807,-0.005711,-0.000845,90
1784563963378000,-3.691457,4.733830,7.743949,0.004262,-0.005712,-0.001903,91
1784563963388000,-3.705757,4.729239,7.753775,0.004777,-0.007314,-0.001902,92
1784563963398000,-3.710616,4.729250,7.749057,0.003183,-0.006234,-0.002414,93
1784563963408000,-3.705803,4.724443,7.753810,0.006374,-0.006812,-0.003001,94
1784563963418000,-3.710302,4.748497,7.758497,0.005818,-0.007349,-0.004588,95
1784563963428000,-3.710986,4.724287,7.725145,0.004761,-0.007854,-0.002966,96
1784563963438000,-3.701000,4.738716,7.744057,0.001013,-0.008869,-0.002893,97
1784563963448000,-3.686571,4.743374,7.743809,-0.000033,-0.008838,-0.000741,98
1784563963458000,-3.705905,4.733932,7.739373,-0.001593,-0.006151,0.000338,99
1784563963468000,-3.705849,4.719649,7.753844,-0.003747,-0.008773,0.001459,100
1784563963478000,-3.681869,4.733739,7.743807,-0.005307,-0.006086,0.002538,101
1784563963488000,-3.715567,4.719672,7.744408,-0.005853,-0.007142,0.002554,102
1784563963498000,-3.715326,4.724567,7.758741,-0.004236,-0.007151,0.004126,103
1784563963508000,-3.695900,4.743599,7.763108,-0.004752,-0.006076,0.004662,104
1784563963518000,-3.676880,4.733794,7.758104,-0.003683,-0.005035,0.003570,105
1784563963528000,-3.705637,4.748384,7.748847,-0.004745,-0.005017,0.004122,106
1784563963538000,-3.672205,4.714603,7.762960,-0.003675,-0.003449,0.002493,107
1784563963548000,-3.700713,4.748406,7.758355,-0.003662,-0.001858,0.001950,108
1784563963558000,-3.676907,4.724238,7.762962,-0.004185,-0.001315,0.002490,109
1784563963568000,-3.672437,4.724025,7.738945,-0.005789,0.000284,0.000375,110
1784563963578000,-3.662895,4.719140,7.738838,-0.005242,0.001868,-0.000178,111
1784563963588000,-3.710653,4.738772,7.739409,-0.007388,0.001360,-0.000670,112
1784563963598000,-3.681794,4.714694,7.763103,-0.007921,0.001894,-0.001197,113
1784563963608000,-3.705886,4.729171,7.744197,-0.006322,0.000819,-0.000152,114
1784563963618000,-3.691558,4.709923,7.753701,-0.008474,-0.000221,-0.000641,115
1784563963629000,-3.705673,4.724510,7.763389,-0.005266,0.000269,-0.000701,116
1784563963639000,-3.720167,4.719818,7.758847,-0.006879,-0.000774,-0.000666,117
1784563963649000,-3.715308,4.719806,7.763565,-0.005278,-0.000794,-0.000695,118
1784563963659000,-3.696306,4.714763,7.753737,-0.004216,-0.000812,-0.001247,119
1784563963669000,-3.691558,4.709923,7.753701,-0.003676,-0.000288,-0.001260,120
1784563963679000,-3.696398,4.705173,7.753806,-0.004773,-0.001877,-0.002298,121
1784563963689000,-3.705646,4.734066,7.758530,-0.004732,0.000789,-0.001247,122
1784563963699000,-3.705922,4.705297,7.758738,-0.004749,-0.000278,-0.001774,123
1784563963709000,-3.686672,4.719467,7.753561,-0.005821,0.000259,-0.002825,124
1784563963719000,-3.710763,4.700548,7.758843,-0.004766,-0.000818,-0.002838,125
1784563963729000,-3.705868,4.724410,7.749021,-0.005835,-0.001859,-0.001746,126
1784563963739000,-3.696214,4.724353,7.753668,-0.005847,-0.002922,-0.001739,127
1784563963749000,-3.710689,4.714899,7.753950,-0.005338,-0.005056,-0.001736,128
1784563963759000,-3.696131,4.719625,7.763281,-0.007491,-0.007151,-0.001151,129
1784563963769000,-3.705590,4.719783,7.773002,-0.008044,-0.009266,-0.000596,130
1784563963779000,-3.705506,4.715055,7.782615,-0.007541,-0.011931,-0.000589,131
1784563963789000,-3.681821,4.705138,7.767962,-0.010215,-0.012428,-0.000538,132
1784563963799000,-3.691363,4.710024,7.768069,-0.009148,-0.012442,-0.000557,133
1784563963809000,-3.681859,4.714660,7.758313,-0.008577,-0.008732,-0.001123,134
1784563963819000,-3.687133,4.671519,7.753907,-0.007504,-0.008214,-0.001145,135
1784563963829000,-3.681516,4.710067,7.787084,-0.005890,-0.007171,-0.001180,136
1784563963839000,-3.686689,4.690832,7.772926,-0.004794,-0.005582,-0.000142,137
1784563963849000,-3.691123,4.714919,7.782402,-0.002111,-0.002971,-0.001805,138
1784563963859000,-3.681978,4.695514,7.763241,-0.002651,-0.003496,-0.001793,139
1784563963869000,-3.700933,4.705353,7.773035,-0.003724,-0.003486,-0.002307,140
1784563963879000,-3.676962,4.705126,7.772680,-0.002111,-0.002971,-0.001805,141
1784563963889000,-3.681895,4.690787,7.772855,-0.002106,-0.002967,-0.001272,142
1784563963899000,-3.700887,4.710148,7.773000,-0.001559,-0.001383,-0.001825,143
1784563963909000,-3.681867,4.700343,7.767996,-0.000503,-0.001405,-0.002910,144
1784563963919000,-3.686421,4.705284,7.782401,0.000048,-0.000344,-0.002393,145
1784563963929000,-3.686643,4.695627,7.772891,0.000583,0.000176,-0.002939,146
1784563963939000,-3.691483,4.690878,7.772997,0.001667,0.000702,-0.001894,147
1784563963949000,-3.686467,4.700489,7.782435,0.000599,0.000189,-0.001339,148
1784563963959000,-3.686597,4.700422,7.772856,0.001689,0.001246,-0.000297,149
1784563963969000,-3.686661,4.700388,7.768067,0.001678,0.001238,-0.001364,150
1784563963979000,-3.681978,4.695514,7.763241,0.002207,0.001754,-0.002444,151
1784563963989000,-3.691345,4.705262,7.772893,0.001146,0.001772,-0.001891,152
1784563963999000,-3.672241,4.690730,7.777502,0.002776,0.003882,-0.001399,153
1784563964009000,-3.686846,4.681209,7.768206,0.001158,0.002836,-0.001898,154
1784563964019000,-3.691520,4.700400,7.763349,0.002765,0.003347,-0.001929,155
1784563964029000,-3.681941,4.685992,7.772889,0.002219,0.002290,-0.001914,156
1784563964039000,-3.691391,4.700468,7.772927,0.001674,0.002289,-0.002971,157
1784563964049000,-3.672168,4.705081,7.772609,0.002753,0.002811,-0.002460,158
1784563964059000,-3.686819,4.690765,7.763347,0.002226,0.003349,-0.002453,159
1784563964069000,-3.686643,4.695627,7.772891,0.005435,0.004894,-0.003587,160
1784563964079000,-3.682005,4.685958,7.768100,0.005431,0.005945,-0.005193,161
1784563964089000,-3.691169,4.710124,7.782437,0.005971,0.006470,-0.005206,162
1784563964099000,-3.686551,4.705216,7.772822,0.008652,0.008026,-0.005796,163
1784563964109000,-3.682089,4.690686,7.758487,0.006495,0.006982,-0.006819,164
1784563964119000,-3.719870,4.710430,7.787652,0.007579,0.007508,-0.005774,165
1784563964129000,-3.715455,4.691104,7.773352,0.008651,0.006971,-0.004723,166
1784563964139000,-3.696445,4.700379,7.753841,0.005957,0.004352,-0.004126,167
1784563964149000,-3.700933,4.705353,7.773035,0.004889,0.003311,-0.003034,168
1784563964159000,-3.705801,4.691048,7.777999,0.005416,0.002772,-0.003040,169
1784563964169000,-3.710790,4.690992,7.763702,0.004864,0.000656,-0.002484,170
1784563964179000,-3.705636,4.714988,7.773036,0.003269,0.001209,-0.002459,171
1784563964189000,-3.701331,4.690835,7.753981,0.003814,0.001738,-0.001939,172
1784563964199000,-3.705931,4.690980,7.768420,0.002741,0.001747,-0.002453,173
1784563964209000,-3.705904,4.700536,7.763562,0.002214,0.002286,-0.002447,174
1784563964219000,-3.710698,4.700582,7.763633,0.000618,0.002311,-0.001885,175
1784563964229000,-3.691631,4.695572,7.758594,0.001150,0.001249,-0.000821,176
1784563964239000,-3.700998,4.705319,7.768245,0.001690,0.001774,-0.000834,177
1784563964249000,-3.701155,4.695696,7.763525,0.001139,0.001241,-0.001888,178
1784563964259000,-3.710606,4.710171,7.763564,0.002219,0.002290,-0.001914,179
1784563964269000,-3.686902,4.695493,7.753734,0.002747,0.002279,-0.002456,180
1784563964279000,-3.705728,4.705398,7.773106,0.001685,0.002297,-0.001904,181
1784563964289000,-3.701044,4.700525,7.768280,0.003286,0.002276,-0.001932,182
1784563964299000,-3.696315,4.700446,7.763420,0.002214,0.002286,-0.002447,183
1784563964309000,-3.677230,4.690674,7.763205,0.003282,0.003327,-0.003539,184
1784563964319000,-3.691566,4.695605,7.763383,0.004904,0.006484,-0.005187,185
1784563964329000,-3.701025,4.695763,7.773104,0.003297,0.006500,-0.005692,186
1784563964339000,-3.676740,4.714783,7.782189,0.004911,0.007543,-0.005727,187
1784563964349000,-3.696361,4.695651,7.763454,0.004374,0.009128,-0.007861,188
1784563964359000,-3.724729,4.710442,7.782934,0.003838,0.007553,-0.006241,189
1784563964369000,-3.724960,4.686467,7.783107,0.000628,0.006008,-0.005108,190
1784563964379000,-3.725016,4.700751,7.768635,0.003301,0.005450,-0.004085,191
1784563964389000,-3.720379,4.691082,7.763844,0.001135,0.002292,-0.003495,192
1784563964399000,-3.720203,4.695944,7.773388,0.000589,0.000708,-0.002942,193
1784563964409000,-3.705950,4.695741,7.763597,0.001115,-0.000886,-0.001875,194
1784563964419000,-3.715676,4.681448,7.763843,0.002703,-0.002497,-0.001360,195
1784563964429000,-3.705636,4.714988,7.773036,0.005911,-0.002007,-0.001420,196
1784563964439000,-3.715584,4.691037,7.763773,0.004836,-0.003580,-0.000325,197
1784563964449000,-3.691520,4.700400,7.763349,0.003769,-0.003566,-0.000306,198
1784563964459000,-3.715473,4.695866,7.768528,0.003774,-0.003562,0.000227,199
1784563964469000,-3.710698,4.700582,7.763633,0.002708,-0.003021,-0.000290,200
1784563964479000,-3.710809,4.695753,7.758878,0.001095,-0.004063,-0.000256,201
1784563964489000,-3.696139,4.705307,7.772964,0.005359,-0.003595,-0.001401,202
1784563964499000,-3.705904,4.700536,7.763562,0.002668,-0.004632,-0.002414,203
1784563964509000,-3.705700,4.714954,7.768247,0.002667,-0.005160,-0.001878,204
1784563964519000,-3.705728,4.705398,7.773106,0.000556,-0.004061,-0.000779,205
1784563964529000,-3.710393,4.705511,7.782755,-0.000524,-0.005110,-0.000754,206
1784563964539000,-3.715408,4.695899,7.773317,0.000027,-0.004577,0.000300,207
1784563964549000,-3.705755,4.695842,7.777965,-0.000506,-0.004042,-0.000227,208
1784563964559000,-3.710660,4.691059,7.773281,0.000572,-0.004048,0.000821,209
1784563964569000,-3.700952,4.710114,7.768211,-0.000479,-0.004022,0.002440,210
1784563964579000,-3.705774,4.700603,7.773140,-0.002074,-0.002942,0.001928,211
1784563964589000,-3.705690,4.695876,7.782754,-0.002607,-0.002935,0.001938,212
1784563964599000,-3.696139,4.705307,7.772964,-0.001558,-0.004016,0.001392,213
1784563964609000,-3.696269,4.705240,7.763385,-0.003170,-0.004531,0.000890,214
1784563964620000,-3.696453,4.686061,7.763524,-0.003152,-0.002936,0.000880,215
1784563964629000,-3.701155,4.695696,7.763525,-0.002091,-0.003482,0.000865,216
1784563964639000,-3.691502,4.695639,7.768173,-0.002073,-0.002414,0.001392,217
1784563964650000,-3.696305,4.681367,7.777926,-0.001539,-0.002421,0.001382,218
1784563964660000,-3.696037,4.695819,7.787401,-0.000454,-0.001368,0.001890,219
1784563964670000,-3.691705,4.681221,7.763487,0.000079,-0.001902,0.002417,220
1784563964680000,-3.705682,4.710193,7.773071,0.000618,-0.001377,0.002405,221
1784563964690000,-3.705690,4.695876,7.782754,0.001686,-0.000864,0.001849,222
1784563964700000,-3.696277,4.690923,7.773067,0.000630,-0.000842,0.002935,223
1784563964710000,-3.701155,4.695696,7.763525,0.002226,-0.000339,0.001836,224
1784563964720000,-3.701164,4.681379,7.773208,0.001159,-0.000325,0.001855,225
1784563964730000,-3.691483,4.690878,7.772997,0.001154,0.000198,0.000785,226
1784563964740000,-3.696323,4.686128,7.773102,0.001687,-0.000336,0.001312,227
1784563964750000,-3.696231,4.695718,7.773033,0.002754,-0.000350,0.001293,228
1784563964760000,-3.701072,4.690969,7.773139,0.001687,-0.000336,0.001312,229
1784563964770000,-3.715685,4.667130,7.773525,0.001692,-0.000332,0.001846,230
1784563964780000,-3.700869,4.705387,7.777824,0.002219,-0.001398,0.002376,231
1784563964790000,-3.691391,4.700468,7.772927,0.000086,-0.000315,0.001341,232
1784563964800000,-3.691502,4.695639,7.768173,0.001164,-0.000321,0.002389,233
1784563964810000,-3.691307,4.695740,7.782541,0.001692,-0.000332,0.001846,234
1784563964820000,-3.696277,4.690923,7.773067,0.003299,-0.000349,0.002351,235
1784563964830000,-3.696167,4.695752,7.777822,0.003833,0.000172,0.001805,236
1784563964840000,-3.700850,4.700625,7.782648,0.005968,0.000144,0.001767,237
1784563964850000,-3.696213,4.690957,7.777857,0.004895,0.000154,0.001252,238
1784563964860000,-3.700933,4.705353,7.773035,0.003311,0.000715,0.002344,239
1784563964870000,-3.696296,4.695684,7.768244,0.002748,-0.001409,0.001833,240
1784563964880000,-3.705820,4.695808,7.773175,0.003287,-0.001412,0.002357,241
1784563964890000,-3.701034,4.681446,7.782787,0.004893,-0.001429,0.002862,242
1784563964900000,-3.696675,4.676404,7.754014,0.004366,-0.000363,0.002332,243
1784563964910000,-3.705793,4.705365,7.768316,0.005433,-0.000376,0.002313,244
1784563964920000,-3.696213,4.690957,7.777857,0.005439,-0.000372,0.002846,245
1784563964930000,-3.696231,4.695718,7.773033,0.006506,-0.000386,0.002827,246
1784563964940000,-3.701201,4.690901,7.763560,0.006512,0.000145,0.002824,247
1784563964950000,-3.691307,4.695740,7.782541,0.006518,0.000150,0.003357,248
1784563964960000,-3.691456,4.700434,7.768138,0.006500,-0.000918,0.002831,249
1784563964970000,-3.676962,4.705126,7.772680,0.006512,0.000145,0.002824,250
1784563964980000,-3.681886,4.705104,7.763172,0.007045,-0.000389,0.003351,251
1784563964990000,-3.701109,4.700491,7.763491,0.003824,-0.002997,0.004491,252
1784563965000000,-3.710458,4.705477,7.777966,0.003258,-0.006704,0.005590,253
1784563965010000,-3.710458,4.705477,7.777966,0.000566,-0.012484,0.009940,254
1784563965020000,-3.696121,4.700547,7.777788,0.002713,-0.010921,0.009359,255
1784563965030000,-3.691705,4.681221,7.763487,0.001101,-0.011436,0.008857,0
1784563965040000,-3.700712,4.715010,7.782544,0.002163,-0.011454,0.008305,1
1784563965050000,-3.662560,4.700229,7.777291,0.002709,-0.009870,0.007752,2
1784563965060000,-3.672168,4.705081,7.772609,0.001656,-0.007738,0.006692,3
1784563965070000,-3.681627,4.705238,7.782330,0.003804,-0.005647,0.005574,4
1784563965080000,-3.672371,4.690663,7.767923,0.002749,-0.004043,0.005050,5
1784563965090000,-3.681959,4.690753,7.768065,0.002211,-0.003512,0.003989,6
1784563965100000,-3.691391,4.700468,7.772927,0.003813,-0.003006,0.003424,7
1784563965110000,-3.691474,4.705195,7.763314,0.003825,-0.001942,0.003418,8
1784563965120000,-3.696148,4.690990,7.782646,0.003826,-0.001415,0.002881,9
1784563965130000,-3.681802,4.700377,7.772785,0.003826,-0.001415,0.002881,10
1784563965140000,-3.681692,4.705205,7.777540,0.003291,-0.001935,0.003427,11
1784563965150000,-3.657794,4.690628,7.782078,0.003832,-0.000356,0.002341,12
1784563965160000,-3.672214,4.700286,7.772643,0.004894,-0.000374,0.001789,13
1784563965170000,-3.676768,4.705227,7.787048,0.005429,0.000147,0.001243,14
1784563965180000,-3.686615,4.705183,7.768033,0.009136,-0.000977,-0.000417,15
1784563965190000,-3.677184,4.695469,7.763170,0.008045,-0.002563,-0.000922,16
1784563965200000,-3.691280,4.705296,7.777682,0.007505,-0.003087,-0.000909,17
1784563965210000,-3.672214,4.700286,7.772643,0.008567,-0.003633,-0.000925,18
1784563965220000,-3.691410,4.705229,7.768104,0.004291,-0.004109,-0.000846,19
1784563965230000,-3.691225,4.724408,7.767965,0.004308,-0.003569,0.000218,20
1784563965240000,-3.691382,4.714785,7.763245,0.002707,-0.003548,0.000246,21
1784563965250000,-3.686661,4.700388,7.768067,0.001646,-0.003003,0.000262,22
1784563965260000,-3.677008,4.700331,7.772714,0.001124,-0.002460,0.000801,23
1784563965270000,-3.681719,4.695649,7.782399,0.000590,-0.002453,0.000811,24
1784563965280000,-3.672065,4.695592,7.787046,0.001676,-0.000345,0.000246,25
1784563965290000,-3.667373,4.705035,7.772538,0.001155,0.000726,0.000249,26
1784563965300000,-3.681535,4.714828,7.782260,0.001162,0.001785,-0.000291,27
1784563965310000,-3.667309,4.705069,7.777327,0.001708,0.002841,-0.000307,28
1784563965320000,-3.676916,4.709921,7.772645,0.000635,0.002851,-0.000822,29
1784563965330000,-3.676870,4.714715,7.772610,0.000642,0.003910,-0.001362,30
1784563965340000,-3.681729,4.714727,7.767892,0.000108,0.003917,-0.001352,31
1784563965350000,-3.686458,4.714806,7.772752,-0.001500,0.002879,-0.000784,32
1784563965360000,-3.676897,4.705160,7.777469,-0.001511,0.002870,-0.001851,33
1784563965370000,-3.686523,4.714773,7.767963,-0.003122,0.002883,-0.002889,34
1784563965380000,-3.677092,4.705059,7.763101,-0.004730,0.001844,-0.002321,35
1784563965390000,-3.691345,4.705262,7.772893,-0.005827,-0.000272,-0.002822,36
1784563965400000,-3.681895,4.690787,7.772855,-0.007447,-0.001847,-0.002784,37
1784563965410000,-3.681405,4.714895,7.791839,-0.007466,-0.003969,-0.002238,38
1784563965420000,-3.643180,4.714466,7.781692,-0.008550,-0.004495,-0.003282,39
1784563965430000,-3.667650,4.676266,7.772746,-0.005838,-0.000281,-0.003889,40
1784563965440000,-3.676998,4.681253,7.787221,-0.002132,-0.002460,-0.004475,41
1784563965450000,-3.661858,4.719677,7.815466,-0.002102,0.000198,-0.004492,42
1784563965460000,-3.696554,4.662154,7.773276,-0.000477,0.001777,-0.003996,43
1784563965470000,-3.691150,4.705363,7.787261,0.000044,0.000179,-0.003463,44
1784563965480000,-3.705690,4.695876,7.782754,0.002724,0.001208,-0.003517,45
1784563965490000,-3.701072,4.690969,7.773139,0.002707,0.000140,-0.004043,46
1784563965500000,-3.696194,4.686195,7.782681,0.001639,-0.000374,-0.003488,47
1784563965510000,-3.696194,4.686195,7.782681,0.001644,-0.000369,-0.002955,48
1784563965520000,-3.681830,4.690821,7.777644,0.001649,-0.000365,-0.002421,49
1784563965530000,-3.686495,4.690933,7.787294,0.002195,0.000164,-0.001901,50
1784563965540000,-3.691418,4.690912,7.777786,0.001672,0.000179,-0.000824,51
1784563965550000,-3.672287,4.685935,7.777536,0.001133,0.000709,-0.001885,52
1784563965560000,-3.672130,4.695558,7.782257,0.002214,0.002814,-0.002984,53
1784563965570000,-3.677100,4.690742,7.772784,0.002748,0.002807,-0.002993,54
1784563965580000,-3.681654,4.695683,7.787188,0.002755,0.003866,-0.003533,55
1784563965590000,-3.672306,4.690696,7.772713,0.004362,0.004377,-0.003564,56
1784563965600000,-3.677054,4.695536,7.772749,0.004362,0.004377,-0.003564,57
1784563965610000,-3.691400,4.686150,7.782610,0.003840,0.005447,-0.003561,58
1784563965620000,-3.691215,4.705329,7.782472,0.004373,0.004912,-0.003034,59
1784563965630000,-3.686763,4.676481,7.777819,0.003829,0.004911,-0.004092,60
1784563965640000,-3.691354,4.690945,7.782576,0.003828,0.004384,-0.003555,61
1784563965650000,-3.686495,4.690933,7.787294,0.003283,0.003855,-0.004076,62
1784563965660000,-3.700831,4.695864,7.787472,0.004900,0.003846,-0.002504,63
1784563965671000,-3.701090,4.695730,7.768315,0.004876,0.002247,-0.003028,64
1784563965681000,-3.691261,4.700535,7.782506,0.003269,0.001209,-0.002459,65
1784563965691000,-3.691354,4.690945,7.782576,0.002207,0.001227,-0.001907,66
1784563965701000,-3.691464,4.686117,7.777821,0.001123,0.000701,-0.002952,67
1784563965711000,-3.691372,4.695706,7.777751,0.002730,0.001212,-0.002983,68
1784563965721000,-3.676971,4.690809,7.782362,0.001687,0.003352,-0.002977,69
1784563965731000,-3.691483,4.690878,7.772997,0.001141,0.002296,-0.002961,70
1784563965741000,-3.691261,4.700535,7.782506,0.000613,0.002307,-0.002419,71
1784563965751000,-3.681784,4.695615,7.777609,0.000085,0.002845,-0.002412,72
1784563965761000,-3.691418,4.690912,7.777786,-0.001001,0.001264,-0.002384,73
1784563965771000,-3.691335,4.686184,7.787399,-0.002068,0.001278,-0.002365,74
1784563965781000,-3.681922,4.681231,7.777713,-0.000995,0.001268,-0.001850,75
1784563965791000,-3.691529,4.686083,7.773031,-0.001001,0.000737,-0.001847,76
1784563965801000,-3.691354,4.690945,7.782576,-0.001540,0.000740,-0.002371,77
1784563965811000,-3.705931,4.690980,7.768420,-0.002069,0.000751,-0.001828,78
1784563965821000,-3.705737,4.691081,7.782788,-0.001540,0.000740,-0.002371,79
1784563965831000,-3.691335,4.686184,7.787399,-0.003142,0.000233,-0.001806,80
1784563965841000,-3.691307,4.695740,7.782541,-0.002608,0.000226,-0.001815,81
1784563965851000,-3.696102,4.695785,7.782612,-0.003160,-0.000835,-0.002333,82
1784563965861000,-3.686402,4.700523,7.787224,-0.002625,-0.000314,-0.002879,83
1784563965871000,-3.681489,4.719623,7.782226,-0.002641,-0.000326,-0.004479,84
1784563965881000,-3.687640,4.618775,7.754288,-0.009613,-0.001316,-0.006483,85
1784563965891000,-3.728783,4.720413,7.830829,0.000052,0.002293,-0.005076,86
1784563965901000,-3.664269,4.589612,7.730195,-0.003189,0.001251,-0.007680,87
1784563965911000,-3.666512,4.700711,7.839622,-0.003703,0.003907,-0.008753,88
1784563965921000,-3.686254,4.695828,7.801627,0.008628,0.010115,-0.010610,89
1784563965931000,-3.696675,4.676404,7.754014,0.003297,0.010189,-0.009982,90
1784563965941000,-3.744275,4.672264,7.783495,0.003226,0.001703,-0.007263,91
1784563965951000,-3.691362,4.676628,7.792258,0.002739,0.004381,-0.005670,92
1784563965961000,-3.705653,4.686353,7.792402,0.003807,0.004367,-0.005688,93
1784563965971000,-3.696684,4.662087,7.763697,0.002709,0.001723,-0.005653,94
1784563965981000,-3.696175,4.681435,7.787505,0.005406,0.003291,-0.004644,95
1784563965991000,-3.667455,4.676367,7.787114,0.005914,0.003791,-0.007857,96
1784563966001000,-3.696378,4.667016,7.782820,0.007576,0.009087,-0.007917,97
1784563966011000,-3.715066,4.691306,7.802088,0.008086,0.007481,-0.008450,98
1784563966021000,-3.691446,4.681355,7.782645,0.008074,0.006945,-0.008981,99
1784563966031000,-3.711113,4.657428,7.763945,0.006485,0.008029,-0.008959,100
1784563966041000,-3.700647,4.715044,7.787333,0.010215,0.007449,-0.009022,101
1784563966051000,-3.710734,4.676708,7.778174,0.008620,0.008001,-0.008997,102
1784563966061000,-3.720425,4.686287,7.763879,0.005937,0.005390,-0.007333,103
1784563966071000,-3.705902,4.667140,7.787751,0.006471,0.005383,-0.007342,104
1784563966081000,-3.710623,4.681537,7.782929,0.006487,0.005396,-0.005742,105
1784563966091000,-3.715371,4.686377,7.782965,0.005942,0.004867,-0.006263,106
1784563966101000,-3.724914,4.691262,7.783072,0.004897,0.005425,-0.004647,107
1784563966111000,-3.715611,4.681481,7.768632,0.004881,0.005940,-0.006784,108
1784563966121000,-3.705986,4.671868,7.778138,0.007033,0.006452,-0.005758,109
1784563966131000,-3.706069,4.676596,7.768524,0.007028,0.006448,-0.006292,110
1784563966141000,-3.710642,4.686298,7.778105,0.005414,0.004878,-0.005720,111
1784563966151000,-3.715741,4.681414,7.759053,0.005407,0.003819,-0.005180,112
1784563966161000,-3.730152,4.671994,7.764125,0.003794,0.002776,-0.005145,113
1784563966171000,-3.725025,4.686434,7.778318,0.005399,0.002232,-0.004104,114
1784563966181000,-3.705801,4.691048,7.777999,0.004321,0.002238,-0.005152,115
1784563966191000,-3.705737,4.691081,7.782788,0.004850,0.002227,-0.005694,116
1784563966201000,-3.710752,4.681469,7.773350,0.004328,0.003297,-0.005691,117
1784563966211000,-3.701340,4.676517,7.763664,0.005396,0.003810,-0.006247,118
1784563966221000,-3.701053,4.686207,7.777963,0.006476,0.004860,-0.006272,119
1784563966231000,-3.691372,4.695706,7.777751,0.010207,0.005862,-0.007945,120
1784563966241000,-3.686633,4.676548,7.787398,0.007540,0.006952,-0.008971,121
1784563966251000,-3.719805,4.710464,7.792441,0.007521,0.004302,-0.007888,122
1784563966261000,-3.686772,4.695560,7.763312,0.008602,0.006406,-0.008987,123
1784563966271000,-3.681903,4.676469,7.782537,0.010187,0.006901,-0.011152,124
1784563966281000,-3.753920,4.686638,7.769165,0.005896,0.006412,-0.012673,125
1784563966291000,-3.691510,4.681322,7.777855,0.011783,0.006876,-0.011714,126
1784563966301000,-3.648611,4.661701,7.772565,0.008052,0.010617,-0.015404,127
1784563966311000,-3.802112,4.667879,7.765225,0.003785,0.012255,-0.016938,128
1784563966321000,-3.715279,4.695966,7.782896,0.009111,0.008489,-0.013810,129
1784563966331000,-3.720092,4.700773,7.778143,0.009684,0.013254,-0.015448,130
1784563966341000,-3.740027,4.662394,7.749968,0.006965,0.007981,-0.014302,131
1784563966351000,-3.729312,4.739223,7.778008,0.010680,0.004755,-0.012749,132
1784563966361000,-3.740128,4.638487,7.759720,0.010715,0.006890,-0.011695,133
1784563966371000,-3.749597,4.657723,7.754934,0.006918,0.001094,-0.011059,134
1784563966381000,-3.743758,4.705929,7.797621,0.007481,0.002690,-0.010012,135
1784563966391000,-3.739778,4.681607,7.754619,0.007486,0.002695,-0.009479,136
1784563966401000,-3.730189,4.681517,7.754477,0.004811,0.001670,-0.008891,137
1784563966411000,-3.749042,4.681866,7.778708,0.006429,0.002189,-0.007856,138
1784563966421000,-3.758825,4.681855,7.764482,0.005376,0.001160,-0.005164,139
1784563966431000,-3.749283,4.676970,7.764374,0.002155,-0.000920,-0.004561,140
1784563966441000,-3.758825,4.681855,7.764482,0.003244,-0.000918,-0.002446,141
1784563966451000,-3.729995,4.681617,7.768845,0.003766,-0.001988,-0.002449,142
1784563966461000,-3.725284,4.686299,7.759161,0.002716,-0.000907,-0.001904,143
1784563966471000,-3.739491,4.691298,7.768918,0.004861,-0.000926,-0.000875,144
1784563966481000,-3.720341,4.681560,7.773492,0.004868,0.000133,-0.001414,145
1784563966491000,-3.739648,4.681674,7.764197,0.004874,0.000665,-0.001418,146
1784563966501000,-3.725089,4.686400,7.773529,0.004893,0.002260,-0.001427,147
1784563966511000,-3.729995,4.681617,7.768845,0.005438,0.002789,-0.000907,148
1784563966521000,-3.749375,4.667380,7.764443,0.004922,0.003863,-0.000370,149
1784563966531000,-3.749421,4.662585,7.764478,0.006522,0.003315,0.000138,150
1784563966541000,-3.754188,4.672187,7.759690,0.007072,0.003320,0.001728,151
1784563966551000,-3.744470,4.672163,7.769127,0.007617,0.003849,0.002249,152
1784563966561000,-3.744415,4.691276,7.759410,0.007638,0.003866,0.004383,153
1784563966571000,-3.744350,4.691309,7.764199,0.007081,0.002273,0.003868,154
1784563966581000,-3.744507,4.681686,7.759479,0.004945,0.001246,0.004979,155
1784563966591000,-3.768322,4.691535,7.764555,0.004422,0.001261,0.006056,156
1784563966601000,-3.754133,4.691299,7.749973,0.002285,-0.000293,0.007703,157
1784563966611000,-3.749301,4.681731,7.759550,0.001211,-0.001866,0.008799,158
1784563966621000,-3.739916,4.667222,7.754723,-0.003588,-0.002327,0.009954,159
1784563966631000,-3.758614,4.710591,7.759484,-0.000381,-0.002892,0.010967,160
1784563966641000,-3.749459,4.672108,7.754830,-0.003579,-0.003901,0.012631,161
1784563966651000,-3.754502,4.652940,7.750250,-0.007328,-0.005971,0.013776,162
1784563966661000,-3.758392,4.720248,7.768994,-0.007334,-0.005975,0.013243,163
1784563966671000,-3.758991,4.657915,7.769444,-0.001412,-0.003904,0.015793,164
1784563966681000,-3.716147,4.652578,7.749682,-0.006267,-0.006517,0.013761,165
1784563966691000,-3.724886,4.700819,7.778214,-0.001967,-0.003914,0.013669,166
1784563966702000,-3.730438,4.662303,7.749826,-0.002517,-0.003919,0.012078,167
1784563966712000,-3.725173,4.691128,7.763915,-0.001977,-0.003395,0.012066,168
1784563966722000,-3.710744,4.695786,7.763668,-0.002527,-0.003400,0.010475,169
1784563966732000,-3.739796,4.686368,7.749795,-0.001992,-0.002352,0.009392,170
1784563966742000,-3.725376,4.676710,7.759230,-0.001459,-0.002359,0.009383,171
1784563966752000,-3.725487,4.671882,7.754475,-0.000924,-0.001839,0.008837,172
1784563966762000,-3.725043,4.691195,7.773494,-0.000390,-0.001845,0.008827,173
1784563966772000,-3.715584,4.691037,7.763773,-0.001469,-0.001840,0.007779,174
1784563966782000,-3.730059,4.681583,7.764055,0.000132,-0.001861,0.007751,175
1784563966792000,-3.725265,4.681538,7.763984,-0.000946,-0.002383,0.007240,176
1784563966802000,-3.729986,4.695934,7.759162,-0.000958,-0.002918,0.006710,177
1784563966812000,-3.720425,4.686287,7.763879,-0.001464,-0.002363,0.008849,178
1784563966822000,-3.725311,4.676743,7.764019,-0.000960,-0.004501,0.008319,179
1784563966832000,-3.725043,4.691195,7.773494,-0.002021,-0.003955,0.008335,180
1784563966842000,-3.710752,4.681469,7.773350,-0.001488,-0.003962,0.008326,181
1784563966852000,-3.725043,4.691195,7.773494,0.000665,-0.002395,0.008278,182
1784563966862000,-3.710568,4.700649,7.773211,0.001188,-0.002938,0.007739,183
1784563966872000,-3.720443,4.691049,7.759055,0.001722,-0.002417,0.007192,184
1784563966882000,-3.710550,4.695888,7.778036,0.001172,-0.002423,0.005602,185
1784563966892000,-3.715584,4.691037,7.763773,0.001700,-0.002434,0.005059,186
1784563966902000,-3.706115,4.671801,7.768559,0.000099,-0.002413,0.005087,187
1784563966912000,-3.705894,4.681458,7.778069,0.002247,-0.000850,0.004506,188
1784563966922000,-3.715371,4.686377,7.782965,0.003837,-0.000879,0.003411,189
1784563966932000,-3.715704,4.671892,7.768701,0.003298,-0.000876,0.002887,190
1784563966942000,-3.715455,4.691104,7.773352,0.003304,-0.000345,0.002884,191
1784563966952000,-3.715565,4.686276,7.768597,0.004377,-0.000354,0.003399,192
1784563966962000,-3.724941,4.681706,7.787931,0.004900,-0.000370,0.002322,193
1784563966972000,-3.705931,4.690980,7.768420,0.003826,-0.001415,0.002881,194
1784563966982000,-3.710633,4.700615,7.768422,0.003298,-0.000876,0.002887,195
1784563966992000,-3.715547,4.681515,7.773421,0.003293,-0.000353,0.001817,196
1784563967002000,-3.710660,4.691059,7.773281,0.003826,-0.000887,0.002345,197
1784563967012000,-3.725376,4.676710,7.759230,0.003827,-0.000360,0.001808,198
1784563967022000,-3.705977,4.686185,7.768455,0.004367,0.000165,0.001795,199
1784563967032000,-3.710688,4.681503,7.778140,0.003851,0.001239,0.002332,200
1784563967042000,-3.701072,4.690969,7.773139,0.003316,0.000191,0.003414,201
1784563967052000,-3.720341,4.681560,7.773492,0.003832,-0.000356,0.002341,202
1784563967062000,-3.710882,4.681402,7.763772,0.004378,0.000173,0.002862,203
1784563967072000,-3.720249,4.691150,7.773423,0.005445,0.000159,0.002843,204
1784563967082000,-3.696194,4.686195,7.782681,0.003310,-0.000340,0.003418,205
1784563967092000,-3.715501,4.686309,7.773386,0.004904,-0.000893,0.003392,206
1784563967102000,-3.701247,4.686106,7.763595,0.004377,-0.000354,0.003399,207
1784563967112000,-3.705820,4.695808,7.773175,0.004928,0.000706,0.003916,208
1784563967122000,-3.715335,4.710250,7.768424,0.004376,-0.001409,0.004472,209
1784563967132000,-3.710614,4.695854,7.773246,0.003297,-0.001931,0.003961,210
1784563967142000,-3.705858,4.705331,7.763527,0.004891,-0.003011,0.004472,211
1784563967152000,-3.715260,4.691206,7.787720,0.004375,-0.001937,0.005008,212
1784563967162000,-3.710642,4.686298,7.778105,0.005436,-0.002482,0.004993,213
1784563967172000,-3.705690,4.695876,7.782754,0.007581,-0.002502,0.006022,214
1784563967182000,-3.696342,4.690890,7.768278,0.004909,-0.001416,0.004462,215
1784563967192000,-3.710698,4.700582,7.763633,0.004897,-0.002480,0.004469,216
1784563967202000,-3.715492,4.700627,7.763704,0.003834,-0.003517,0.006094,217
1784563967212000,-3.710430,4.715033,7.773108,0.003827,-0.004048,0.006098,218
1784563967222000,-3.706069,4.676596,7.768524,0.002766,-0.003503,0.006113,219
1784563967232000,-3.706061,4.690913,7.758842,0.003838,-0.004040,0.007164,220
1784563967242000,-3.715557,4.700593,7.758914,0.002759,-0.004562,0.006653,221
1784563967252000,-3.715584,4.691037,7.763773,0.002753,-0.005621,0.007193,222
1784563967262000,-3.715325,4.691172,7.782930,0.003298,-0.005092,0.007714,223
1784563967272000,-3.696342,4.690890,7.768278,0.003829,-0.006682,0.009314,224
1784563967282000,-3.691566,4.695605,7.763383,0.003319,-0.005603,0.010384,225
1784563967292000,-3.696167,4.695752,7.777822,0.007054,-0.005652,0.010318,226
1784563967302000,-3.643948,4.694984,7.738727,0.001121,-0.008258,0.007238,227
1784563967312000,-3.686356,4.705317,7.787190,0.001148,-0.004022,0.005078,228
1784563967322000,-3.706061,4.690913,7.758842,0.005459,-0.001411,0.006053,229
1784563967332000,-3.682108,4.695447,7.753663,0.003296,-0.002459,0.004497,230
1784563967342000,-3.705950,4.695741,7.763597,0.003825,-0.001942,0.003418,231
1784563967352000,-3.710531,4.691126,7.782859,0.005431,-0.002487,0.004459,232
1784563967362000,-3.691437,4.695673,7.772962,0.005964,-0.002493,0.004450,233
1784563967372000,-3.691437,4.695673,7.772962,0.006516,-0.000905,0.004431,234
1784563967382000,-3.686772,4.695560,7.763312,0.005972,-0.000907,0.003373,235
1784563967392000,-3.696121,4.700547,7.777788,0.005991,0.001216,0.002827,236
1784563967402000,-3.696296,4.695684,7.768244,0.005986,0.001739,0.001757,237
1784563967412000,-3.696231,4.695718,7.773033,0.005975,0.001203,0.001227,238
1784563967422000,-3.696185,4.700513,7.772998,0.006514,0.001200,0.001751,239
1784563967432000,-3.700933,4.705353,7.773035,0.005981,0.001735,0.001224,240
1784563967442000,-3.696139,4.705307,7.772964,0.006513,0.000673,0.002288,241
1784563967452000,-3.705811,4.710126,7.763493,0.004372,-0.000358,0.002865,242
1784563967462000,-3.700823,4.710182,7.777790,0.004898,-0.001425,0.003396,243
1784563967472000,-3.701072,4.690969,7.773139,0.004359,-0.001949,0.003408,244
1784563967482000,-3.696204,4.705274,7.768174,0.004359,-0.001949,0.003408,245
1784563967492000,-3.681738,4.700410,7.777575,0.004371,-0.000886,0.003402,246
1784563967502000,-3.691520,4.700400,7.763349,0.004887,-0.001960,0.002865,247
1784563967512000,-3.686532,4.700456,7.777646,0.004894,-0.000901,0.002326,248
1784563967522000,-3.696269,4.705240,7.763385,0.003827,-0.000360,0.001808,249
1784563967532000,-3.686551,4.705216,7.772822,0.004361,-0.000367,0.001798,250
1784563967542000,-3.686726,4.700355,7.763278,0.004368,0.000692,0.001259,251
1784563967552000,-3.691410,4.705229,7.768104,0.003810,-0.000900,0.000744,252
1784563967562000,-3.705774,4.700603,7.773140,0.003287,-0.000885,0.001821,253
1784563967572000,-3.701155,4.695696,7.763525,0.003815,-0.001423,0.001814,254
1784563967582000,-3.696250,4.700480,7.768209,0.003820,-0.001419,0.002348,255
1784563967592000,-3.691363,4.710024,7.768069,0.003276,-0.001420,0.001291,0
1784563967602000,-3.696204,4.705274,7.768174,0.004343,-0.001434,0.001272,1
1784563967612000,-3.691428,4.709990,7.763279,0.003254,-0.001964,-0.000306,2
1784563967622000,-3.696287,4.710002,7.758561,0.001142,-0.000865,0.000792,3
1784563967632000,-3.691382,4.714785,7.763245,0.001670,-0.000876,0.000249,4
1784563967642000,-3.696407,4.690856,7.763489,0.002193,-0.000891,-0.000827,5
1784563967652000,-3.681710,4.709966,7.772716,0.002198,-0.000887,-0.000294,6
1784563967662000,-3.696315,4.700446,7.763420,0.001670,-0.000876,0.000249,7
1784563967672000,-3.700887,4.710148,7.773000,0.002731,-0.001949,0.000770,8
1784563967682000,-3.691410,4.705229,7.768104,0.001682,-0.000340,0.000779,9
1784563967692000,-3.696112,4.714864,7.768105,0.002198,-0.001415,0.000243,10
1784563967702000,-3.696074,4.705341,7.777753,0.002744,-0.000358,0.000227,11
1784563967712000,-3.696491,4.695584,7.753876,0.002205,-0.000356,-0.000297,12
1784563967723000,-3.695963,4.710170,7.782508,0.002198,-0.000887,-0.000294,13
1784563967733000,-3.700961,4.695797,7.777894,0.003812,0.000155,-0.000329,14
1784563967743000,-3.691345,4.705262,7.772893,0.002738,-0.000363,-0.000307,15
1784563967753000,-3.705663,4.705432,7.777895,0.003277,-0.000893,0.000754,16
1784563967763000,-3.696185,4.700513,7.772998,0.002192,-0.001419,-0.000291,17
1784563967773000,-3.686615,4.705183,7.768033,0.002731,-0.001949,0.000770,18
1784563967783000,-3.696361,4.695651,7.763454,0.002180,-0.002482,-0.000284,19
1784563967793000,-3.691650,4.700334,7.753770,0.002719,-0.002485,0.000240,20
1784563967803000,-3.705598,4.705465,7.782684,0.001639,-0.004062,0.000802,21
1784563967813000,-3.691410,4.705229,7.768104,0.003222,-0.005150,0.000246,22
1784563967823000,-3.686523,4.714773,7.767963,0.003756,-0.005157,0.000237,23
1784563967833000,-3.681867,4.700343,7.767996,0.003228,-0.004619,0.000243,24
1784563967843000,-3.676897,4.705160,7.777469,0.001628,-0.004598,0.000272,25
1784563967853000,-3.691456,4.700434,7.768138,0.001640,-0.003007,-0.000271,26
1784563967863000,-3.696204,4.705274,7.768174,0.002174,-0.003014,-0.000281,27
1784563967873000,-3.691474,4.705195,7.763314,0.002714,-0.002489,-0.000294,28
1784563967883000,-3.686680,4.705149,7.763243,0.002715,-0.001962,-0.000830,29
1784563967893000,-3.696139,4.705307,7.772964,0.001114,-0.001941,-0.000802,30
1784563967903000,-3.686597,4.700422,7.772856,0.001647,-0.002475,-0.000275,31
1784563967913000,-3.681821,4.705138,7.767962,0.001636,-0.002484,-0.001341,32
1784563967923000,-3.691391,4.700468,7.772927,0.001663,-0.002463,0.001325,33
1784563967933000,-3.681692,4.705205,7.777540,0.002186,-0.001951,-0.000287,34
1784563967943000,-3.691280,4.705296,7.777682,0.002186,-0.002478,0.000249,35
1784563967953000,-3.696010,4.705375,7.782542,0.003259,-0.001960,0.000227,36
1784563967963000,-3.686578,4.695661,7.777680,0.001669,-0.001404,0.000786,37
1784563967973000,-3.686394,4.714840,7.777542,0.001669,-0.001404,0.000786,38
1784563967983000,-3.681692,4.705205,7.777540,0.002731,-0.001949,0.000770,39
1784563967993000,-3.696250,4.700480,7.768209,0.002207,-0.002461,0.002383,40
1784563968003000,-3.681848,4.695581,7.772820,0.001643,-0.005113,0.002408,41
1784563968013000,-3.667484,4.700207,7.767783,0.003226,-0.006201,0.001853,42
1784563968023000,-3.691391,4.700468,7.772927,0.005350,-0.006237,0.000749,43
1784563968033000,-3.700915,4.700592,7.777859,0.004802,-0.008876,0.002374,44
1784563968043000,-3.672168,4.705081,7.772609,0.006368,-0.011032,0.001292,45
1784563968053000,-3.681821,4.705138,7.767962,0.004768,-0.010483,0.000784,46
1784563968063000,-3.686375,4.710079,7.782366,0.005835,-0.010497,0.000765,47
1784563968073000,-3.686661,4.700388,7.768067,0.004269,-0.008341,0.001847,48
1784563968083000,-3.676832,4.705193,7.782259,0.003190,-0.009391,0.001873,49
1784563968093000,-3.686394,4.714840,7.777542,0.004259,-0.008350,0.000780,50
1784563968103000,-3.681794,4.714694,7.763103,0.003196,-0.008859,0.001869,51
1784563968113000,-3.657479,4.709874,7.791518,0.002662,-0.008852,0.001879,52
1784563968123000,-3.677027,4.705092,7.767890,0.002141,-0.007255,0.001345,53
1784563968133000,-3.662579,4.704990,7.772467,0.001615,-0.006189,0.000815,54
1784563968143000,-3.667151,4.714692,7.782047,0.001107,-0.003000,-0.000262,55
1784563968153000,-3.667355,4.700274,7.777362,0.002192,-0.001419,-0.000291,56
1784563968163000,-3.681756,4.705171,7.772751,0.002210,-0.000351,0.000236,57
1784563968173000,-3.676962,4.705126,7.772680,0.001695,0.001250,0.000236,58
1784563968183000,-3.672103,4.705114,7.777398,0.001701,0.002310,-0.000304,59
1784563968193000,-3.681756,4.705171,7.772751,0.001701,0.001782,0.000233,60
1784563968203000,-3.672214,4.700286,7.772643,0.002224,0.001767,-0.000844,61
1784563968213000,-3.676962,4.705126,7.772680,0.002234,0.001775,0.000223,62
1784563968223000,-3.681719,4.695649,7.782399,0.002241,0.002834,-0.000317,63
1784563968233000,-3.681719,4.695649,7.782399,0.003302,0.002289,-0.000332,64
1784563968243000,-3.676897,4.705160,7.777469,0.001708,0.003369,-0.000844,65
1784563968253000,-3.672038,4.705148,7.782187,0.001708,0.003369,-0.000844,66
1784563968263000,-3.681710,4.709966,7.772716,0.002261,0.005484,-0.001400,67
1784563968273000,-3.676962,4.705126,7.772680,0.002260,0.004957,-0.000863,68
1784563968283000,-3.672011,4.714704,7.777328,0.002260,0.004957,-0.000863,69
1784563968293000,-3.676897,4.705160,7.777469,0.001194,0.006026,-0.001917,70
1784563968303000,-3.681664,4.714761,7.772681,0.001188,0.005494,-0.001914,71
1784563968313000,-3.681645,4.710000,7.777505,0.000115,0.005504,-0.002429,72
1784563968323000,-3.686597,4.700422,7.772856,0.000638,0.004961,-0.002968,73
1784563968333000,-3.691520,4.700400,7.763349,0.000103,0.004440,-0.002422,74
1784563968343000,-3.681683,4.719522,7.767858,-0.000424,0.005506,-0.002952,75
1784563968353000,-3.681765,4.690854,7.782434,0.000112,0.006554,-0.004035,76
1784563968363000,-3.686707,4.695593,7.768102,0.001713,0.006534,-0.004064,77
1784563968373000,-3.677027,4.705092,7.767890,0.001702,0.006525,-0.005130,78
1784563968383000,-3.696093,4.710103,7.772929,0.001720,0.008120,-0.005140,79
1784563968393000,-3.681756,4.705171,7.772751,0.002248,0.007582,-0.005146,80
1784563968403000,-3.696158,4.710069,7.768140,0.001186,0.007600,-0.004594,81
1784563968413000,-3.691242,4.695774,7.787330,0.002253,0.007586,-0.004613,82
1784563968423000,-3.686745,4.705116,7.758454,0.003326,0.007576,-0.004098,83
1784563968433000,-3.686643,4.695627,7.772891,0.003326,0.007576,-0.004098,84
1784563968443000,-3.672306,4.690696,7.772713,0.005468,0.009135,-0.005213,85
1784563968453000,-3.681802,4.700377,7.772785,0.007078,0.011756,-0.007391,86
1784563968463000,-3.662625,4.700195,7.772501,0.007612,0.012277,-0.007937,87
1784563968473000,-3.667068,4.709965,7.791660,0.010829,0.015408,-0.010147,88
1784563968483000,-3.691566,4.695605,7.763383,0.009206,0.014885,-0.011715,89
1784563968493000,-3.681848,4.695581,7.772820,0.012966,0.016963,-0.011794,90
1784563968503000,-3.681802,4.700377,7.772785,0.012984,0.018558,-0.011804,91
1784563968513000,-3.672333,4.681140,7.777571,0.016189,0.020626,-0.014007,92
1784563968523000,-3.691215,4.705329,7.782472,0.015129,0.022227,-0.015065,93
1784563968533000,-3.715630,4.686242,7.763808,0.017269,0.021676,-0.014033,94
1784563968543000,-3.705830,4.714887,7.758668,0.016736,0.022210,-0.014560,95
1784563968553000,-3.725303,4.691061,7.754336,0.016711,0.019556,-0.014010,96
1784563968563000,-3.725072,4.715035,7.754163,0.017802,0.021141,-0.013505,97
1784563968573000,-3.730042,4.710218,7.744690,0.015114,0.019054,-0.012912,98
1784563968583000,-3.730116,4.695867,7.749583,0.014573,0.017474,-0.011826,99
1784563968593000,-3.739464,4.700853,7.764059,0.013487,0.015365,-0.011261,100
1784563968603000,-3.729867,4.715080,7.754234,0.012963,0.014853,-0.009648,101
1784563968613000,-3.720240,4.705467,7.763740,0.009748,0.013304,-0.009048,102
1784563968623000,-3.729959,4.705491,7.754303,0.009745,0.011194,-0.006901,103
1784563968633000,-3.706052,4.705230,7.749159,0.010286,0.012246,-0.007451,104
1784563968643000,-3.725007,4.715068,7.758953,0.009214,0.012783,-0.008502,105
1784563968653000,-3.729959,4.705491,7.754303,0.009730,0.011709,-0.009038,106
1784563968663000,-3.729940,4.700729,7.759128,0.008678,0.011208,-0.006883,107
1784563968673000,-3.739390,4.715204,7.759166,0.008137,0.009628,-0.005797,108
1784563968683000,-3.729756,4.719909,7.758989,0.006513,0.008577,-0.006828,109
1784563968693000,-3.729802,4.715114,7.759024,0.005983,0.007533,-0.005212,110
1784563968703000,-3.739639,4.695992,7.754515,0.005971,0.006470,-0.005206,111
1784563968714000,-3.744314,4.715182,7.749658,0.004898,0.005952,-0.005184,112
1784563968723000,-3.734948,4.705435,7.740007,0.004351,0.004368,-0.004631,113
1784563968733000,-3.749109,4.715228,7.749729,0.003288,0.003859,-0.003542,114
1784563968743000,-3.729996,4.715013,7.744656,0.003294,0.003863,-0.003009,115
1784563968754000,-3.734818,4.705502,7.749585,0.001681,0.002820,-0.002974,116
1784563968763000,-3.730134,4.700629,7.744760,0.002226,0.003349,-0.002453,117
1784563968774000,-3.734661,4.715126,7.754305,0.003299,0.003867,-0.002476,118
1784563968784000,-3.739742,4.705480,7.740078,0.003294,0.004390,-0.003546,119
1784563968794000,-3.730024,4.705457,7.749514,0.002766,0.004402,-0.003003,120
1784563968804000,-3.729959,4.705491,7.754303,0.003822,0.003852,-0.003552,121
1784563968814000,-3.729959,4.705491,7.754303,0.003294,0.004390,-0.003546,122
1784563968824000,-3.744425,4.710354,7.744904,0.003828,0.004384,-0.003555,123
1784563968834000,-3.749155,4.710433,7.749763,0.002215,0.003341,-0.003520,124
1784563968844000,-3.749266,4.705605,7.745009,0.003793,0.002249,-0.004609,125
1784563968854000,-3.734633,4.724681,7.749446,0.002201,0.001223,-0.002440,126
1784563968864000,-3.730153,4.705389,7.739936,0.001135,0.001764,-0.002958,127
1784563968874000,-3.730153,4.705389,7.739936,0.000600,0.001244,-0.002412,128
1784563968884000,-3.734726,4.715092,7.749516,-0.001001,0.001264,-0.002384,129
1784563968894000,-3.735040,4.695845,7.740076,0.000045,0.001234,-0.004536,130
1784563968904000,-3.734994,4.700640,7.740042,-0.000466,0.002312,-0.003466,131
1784563968914000,-3.749331,4.705571,7.740220,-0.000477,0.001777,-0.003996,132
1784563968924000,-3.729904,4.724603,7.744586,0.000062,0.001774,-0.003473,133
1784563968934000,-3.715354,4.715011,7.763600,0.001677,0.003871,-0.004581,134
1784563968944000,-3.739510,4.696058,7.764093,0.000053,0.002821,-0.005613,135
1784563968954000,-3.754087,4.696094,7.749938,0.001664,0.002808,-0.004574,136
1784563968964000,-3.749515,4.686391,7.740359,0.002198,0.002801,-0.004584,137
1784563968974000,-3.744471,4.705559,7.744938,0.001669,0.002285,-0.003504,138
1784563968984000,-3.730042,4.710218,7.744690,0.000596,0.002294,-0.004019,139
1784563968994000,-3.730134,4.700629,7.744760,0.000609,0.003358,-0.004025,140
1784563969004000,-3.730264,4.700562,7.735181,0.001664,0.002281,-0.004038,141
1784563969014000,-3.734975,4.695879,7.744865,0.001671,0.003340,-0.004577,142
1784563969024000,-3.739982,4.700585,7.725745,0.001677,0.004399,-0.005117,143
1784563969034000,-3.720435,4.705366,7.749372,0.000060,0.004407,-0.006689,144
1784563969044000,-3.739658,4.700753,7.749691,0.000075,0.007053,-0.008305,145
1784563969054000,-3.763759,4.700912,7.740468,0.000080,0.007057,-0.007772,146
1784563969064000,-3.739547,4.705581,7.754446,0.002215,0.007029,-0.007810,147
1784563969074000,-3.739807,4.705447,7.735289,0.001670,0.007028,-0.008867,148
1784563969084000,-3.734910,4.695912,7.749654,0.003818,0.009119,-0.009985,149
1784563969094000,-3.749469,4.691186,7.740324,0.005445,0.011752,-0.010563,150
1784563969104000,-3.739815,4.691130,7.744971,0.006517,0.011215,-0.009512,151
1784563969114000,-3.782567,4.706056,7.764663,0.005448,0.010174,-0.008419,152
1784563969124000,-3.768470,4.696229,7.750152,0.007581,0.009091,-0.007384,153
1784563969134000,-3.768600,4.696162,7.740573,0.005978,0.007529,-0.005746,154
1784563969144000,-3.768600,4.696162,7.740573,0.005431,0.005418,-0.004657,155
1784563969154000,-3.763713,4.705707,7.740433,0.006490,0.003817,-0.003599,156
1784563969164000,-3.754328,4.691198,7.735606,0.005428,0.003835,-0.003047,157
1784563969174000,-3.749423,4.695981,7.740289,0.004906,0.003850,-0.001971,158
1784563969184000,-3.773200,4.696309,7.755012,0.004895,0.003842,-0.003037,159
1784563969194000,-3.758854,4.705695,7.745152,0.004355,0.003317,-0.003025,160
1784563969204000,-3.758946,4.696105,7.745221,0.003821,0.003324,-0.003015,161
1784563969214000,-3.763759,4.700912,7.740468,0.003293,0.003335,-0.002472,162
1784563969224000,-3.758946,4.696105,7.745221,0.003292,0.002808,-0.001936,163
1784563969234000,-3.768664,4.696129,7.735784,0.003275,0.001741,-0.002463,164
1784563969244000,-3.768554,4.700957,7.740539,0.003815,0.002265,-0.002475,165
1784563969254000,-3.758854,4.705695,7.745152,0.003826,0.002801,-0.001945,166
1784563969264000,-3.758946,4.696105,7.745221,0.004370,0.002275,-0.000351,167
1784563969274000,-3.768489,4.700991,7.745328,0.003825,0.001746,-0.000872,168
1784563969284000,-3.754189,4.705583,7.735502,0.003825,0.001746,-0.000872,169
1784563969294000,-3.749377,4.700776,7.740254,0.004374,0.001752,0.000719,170
1784563969304000,-3.754374,4.686403,7.735640,0.002763,0.001764,-0.000320,171
1784563969314000,-3.758993,4.691311,7.745255,0.003836,0.002282,-0.000342,172
1784563969324000,-3.754263,4.691232,7.740395,0.004370,0.002275,-0.000351,173
1784563969334000,-3.758919,4.705661,7.740362,0.004909,0.002800,-0.000364,174
1784563969344000,-3.758984,4.705628,7.735573,0.005965,0.002250,-0.000913,175
1784563969354000,-3.759011,4.696072,7.740431,0.005432,0.002257,-0.000904,176
1784563969364000,-3.758965,4.700867,7.740396,0.003837,0.002809,-0.000878,177
1784563969374000,-3.768554,4.700957,7.740539,0.004904,0.002795,-0.000897,178
1784563969384000,-3.778180,4.710570,7.731033,0.005437,0.002261,-0.000370,179
1784563969394000,-3.758919,4.705661,7.740362,0.005960,0.002246,-0.001446,180
1784563969404000,-3.768508,4.705752,7.740504,0.005431,0.001729,-0.000367,181
1784563969414000,-3.783159,4.691437,7.731242,0.005971,0.002254,-0.000380,182
1784563969424000,-3.773367,4.705764,7.735786,0.005413,0.000134,-0.000357,183
1784563969434000,-3.768664,4.696129,7.735784,0.005951,-0.000396,0.000703,184
1784563969444000,-3.773283,4.701036,7.745399,0.005423,0.000143,0.000710,185
1784563969454000,-3.763916,4.691289,7.735748,0.005434,0.000151,0.001776,186
1784563969464000,-3.763759,4.700912,7.740468,0.005423,0.000143,0.000710,187
1784563969474000,-3.754171,4.700821,7.740325,0.005412,-0.000393,0.000179,188
1784563969484000,-3.759076,4.696038,7.735642,0.005423,0.000143,0.000710,189
1784563969494000,-3.759030,4.700833,7.735607,0.005969,0.000672,0.001230,190
1784563969504000,-3.759011,4.696072,7.740431,0.005958,0.000663,0.000163,191
1784563969514000,-3.768461,4.710547,7.740469,0.005436,0.001206,0.000703,192
1784563969524000,-3.768443,4.705786,7.745294,0.007037,0.001185,0.000675,193
1784563969534000,-3.768554,4.700957,7.740539,0.005951,-0.000396,0.000703,194
1784563969544000,-3.759002,4.710389,7.730749,0.005418,0.000139,0.000176,195
1784563969554000,-3.768508,4.705752,7.740504,0.004349,-0.000903,0.001268,196
1784563969564000,-3.763935,4.696050,7.730924,0.004896,0.000681,0.000716,197
1784563969574000,-3.758956,4.715184,7.730714,0.005424,0.000670,0.000173,198
1784563969584000,-3.759095,4.700799,7.730818,0.004351,0.000680,-0.000342,199
1784563969594000,-3.759011,4.696072,7.740431,0.004351,0.000680,-0.000342,200
1784563969604000,-3.768729,4.696095,7.730995,0.004879,0.000141,-0.000348,201
1784563969614000,-3.768489,4.700991,7.745328,0.004878,-0.000386,0.000189,202
1784563969624000,-3.768461,4.710547,7.740469,0.004854,-0.002513,0.000202,203
1784563969634000,-3.759141,4.696004,7.730853,0.005388,-0.001992,-0.000344,204
1784563969644000,-3.763870,4.696084,7.735713,0.005388,-0.001992,-0.000344,205
1784563969654000,-3.763889,4.700845,7.730889,0.006473,-0.000939,0.000164,206
1784563969664000,-3.753922,4.720035,7.744977,0.004883,-0.000909,0.001259,207
1784563969674000,-3.764287,4.686326,7.711835,0.003793,-0.001967,0.000218,208
1784563969684000,-3.768378,4.705819,7.750082,0.004878,-0.000386,0.000189,209
1784563969694000,-3.773348,4.701003,7.740610,0.005422,-0.000912,0.001783,210
1784563969704000,-3.768545,4.715274,7.730856,0.005380,-0.004106,0.001269,211
1784563969714000,-3.758938,4.710423,7.735538,0.004312,-0.004620,0.001824,212
1784563969724000,-3.763843,4.705639,7.730855,0.004311,-0.005147,0.002361,213
1784563969734000,-3.758781,4.720046,7.740258,0.003255,-0.004598,0.002910,214
1784563969744000,-3.758873,4.710456,7.740327,0.002188,-0.004584,0.002929,215
1784563969754000,-3.754143,4.710378,7.735467,0.002190,-0.003529,0.001856,216
1784563969764000,-3.763843,4.705639,7.730855,0.002206,-0.002989,0.002919,217
1784563969775000,-3.758873,4.710456,7.740327,0.003280,-0.002471,0.002897,218
1784563969785000,-3.763935,4.696050,7.730924,0.003263,-0.003011,0.001834,219
1784563969795000,-3.763686,4.715263,7.735574,0.004336,-0.002493,0.001811,220
1784563969805000,-3.749433,4.715060,7.725782,0.005948,-0.002506,0.002850,221
1784563969815000,-3.754162,4.715138,7.730643,0.004353,-0.001953,0.002875,222
1784563969825000,-3.749155,4.710433,7.749763,0.004371,-0.000886,0.003402,223
1784563969835000,-3.763861,4.710401,7.726030,0.005427,-0.000908,0.002316,224
1784563969845000,-3.773256,4.710592,7.740541,0.004377,-0.000354,0.003399,225
1784563969855000,-3.754135,4.724695,7.725784,0.003826,-0.001415,0.002881,226
1784563969865000,-3.749322,4.719888,7.730537,0.003826,-0.001415,0.002881,227
1784563969875000,-3.759021,4.715150,7.725924,0.003297,-0.001404,0.003424,228
1784563969885000,-3.759002,4.710389,7.730749,0.003285,-0.002467,0.003430,229
1784563969895000,-3.754079,4.710411,7.740256,0.003291,-0.001935,0.003427,230
1784563969905000,-3.749395,4.705537,7.735431,0.004898,-0.001425,0.003396,231
1784563969915000,-3.763640,4.720058,7.735540,0.004893,-0.001429,0.002862,232
1784563969925000,-3.759002,4.710389,7.730749,0.004910,-0.000889,0.003926,233
1784563969935000,-3.754171,4.700821,7.740325,0.004370,-0.001413,0.003938,234
1784563969945000,-3.744444,4.715115,7.740080,0.003849,-0.000343,0.003941,235
1784563969955000,-3.749238,4.715160,7.740150,0.003309,-0.000868,0.003954,236
1784563969965000,-3.749441,4.700743,7.735465,0.003314,-0.000864,0.004487,237
1784563969975000,-3.744573,4.715048,7.730501,0.005977,-0.000903,0.003907,238
1784563969985000,-3.744527,4.719843,7.730466,0.004382,-0.000350,0.003932,239
1784563969995000,-3.759178,4.705527,7.721205,0.003303,-0.001400,0.003957,240
1784563970005000,-3.758708,4.734397,7.735365,0.004371,-0.000886,0.003402,241
1784563970015000,-3.749257,4.719922,7.735327,0.004359,-0.001949,0.003408,242
1784563970025000,-3.758689,4.729636,7.740189,0.002746,-0.002464,0.002907,243
1784563970035000,-3.749433,4.715060,7.725782,0.003280,-0.002471,0.002897,244
1784563970045000,-3.739936,4.705379,7.725710,0.002212,-0.002985,0.003453,245
1784563970055000,-3.754143,4.710378,7.735467,0.002752,-0.002460,0.003440,246
1784563970065000,-3.749211,4.724717,7.735292,0.001673,-0.002455,0.002392,247
1784563970075000,-3.735013,4.705401,7.735218,0.003286,-0.001940,0.002894,248
1784563970085000,-3.744352,4.724705,7.740010,0.003288,-0.000357,0.001284,249
1784563970095000,-3.734920,4.714991,7.735148,0.003289,0.000698,0.000211,250
1784563970105000,-3.744582,4.700731,7.740184,0.003296,0.001230,0.000208,251
1784563970115000,-3.754116,4.719934,7.730608,0.003302,0.001761,0.000204,252
1784563970125000,-3.754051,4.719967,7.735398,0.005430,0.001202,0.000170,253
1784563970135000,-3.749368,4.715093,7.730572,0.003818,0.000687,-0.000332,254
1784563970145000,-3.754162,4.715138,7.730643,0.003290,0.001225,-0.000326,255
1784563970155000,-3.749543,4.710231,7.721028,0.003296,0.001230,0.000208,0
1784563970165000,-3.758864,4.724773,7.730645,0.002757,0.001232,-0.000316,1
1784563970175000,-3.735004,4.719719,7.725535,0.003285,0.001221,-0.000859,2
1784563970185000,-3.744573,4.715048,7.730501,0.002218,0.001763,-0.001377,3
1784563970195000,-3.739511,4.729455,7.739905,0.002716,-0.000907,-0.001904,4
1784563970205000,-3.730126,4.714946,7.735077,0.003264,0.001732,-0.003529,5
1784563970215000,-3.739807,4.705447,7.735289,0.004345,0.003837,-0.004628,6
1784563970225000,-3.754079,4.710411,7.740256,0.004327,0.002769,-0.005155,7
1784563970235000,-3.739696,4.710275,7.740043,0.005924,0.003272,-0.006253,8
1784563970245000,-3.749303,4.715127,7.735361,0.006991,0.003258,-0.006272,9
1784563970255000,-3.763751,4.715229,7.730785,0.007007,0.003270,-0.004672,10
1784563970265000,-3.749275,4.724683,7.730503,0.005923,0.002744,-0.005717,11
1784563970275000,-3.739557,4.724659,7.739939,0.004873,0.003826,-0.005171,12
1784563970285000,-3.773321,4.710559,7.735751,0.004832,0.001159,-0.006221,13
1784563970295000,-3.773432,4.705730,7.730997,0.003775,0.000654,-0.004599,14
1784563970305000,-3.763843,4.705639,7.730855,0.003762,-0.000410,-0.004593,15
1784563970315000,-3.753987,4.720001,7.740187,0.003769,0.000122,-0.004596,16
1784563970325000,-3.749368,4.715093,7.730572,0.002677,-0.001991,-0.004564,17
1784563970335000,-3.768480,4.715308,7.735645,0.002143,-0.001984,-0.004554,18
1784563970345000,-3.739825,4.710208,7.730464,0.002155,-0.000920,-0.004561,19
1784563970355000,-3.763834,4.719957,7.721172,0.001099,-0.000898,-0.003475,20
1784563970365000,-3.744555,4.710287,7.735325,0.003240,0.000133,-0.004053,21
1784563970375000,-3.758800,4.724807,7.735434,0.002174,0.000675,-0.004571,22
1784563970385000,-3.763686,4.715263,7.735574,0.002168,0.000143,-0.004567,23
1784563970395000,-3.749460,4.705503,7.730641,0.001616,-0.001445,-0.004548,24
1784563970405000,-3.758716,4.720080,7.745048,0.001609,-0.002504,-0.004008,25
1784563970415000,-3.773321,4.710559,7.735751,0.002159,-0.002499,-0.002418,26
1784563970425000,-3.758919,4.705661,7.740362,0.001619,-0.003024,-0.002405,27
1784563970435000,-3.758984,4.705628,7.735573,0.002159,-0.002499,-0.002418,28
1784563970445000,-3.768461,4.710547,7.740469,0.002698,-0.002502,-0.001894,29
1784563970455000,-3.739650,4.715070,7.740009,0.002176,-0.001959,-0.001354,30
1784563970465000,-3.735096,4.710129,7.725604,0.003237,-0.002504,-0.001370,31
1784563970475000,-3.734939,4.719752,7.730324,0.003765,-0.002515,-0.001913,32
1784563970485000,-3.754171,4.700821,7.740325,0.004319,0.000655,-0.003542,33
1784563970495000,-3.758892,4.715218,7.735503,0.004325,0.001187,-0.003545,34
1784563970505000,-3.739779,4.715003,7.730430,0.004860,0.001707,-0.004091,35
1784563970515000,-3.754162,4.715138,7.730643,0.005394,0.002228,-0.004637,36
1784563970525000,-3.744536,4.705525,7.740149,0.006455,0.001682,-0.004653,37
1784563970535000,-3.749441,4.700743,7.735465,0.005388,0.001696,-0.004634,38
1784563970545000,-3.758781,4.720046,7.740258,0.006461,0.002214,-0.004656,39
1784563970555000,-3.758975,4.719945,7.725890,0.006443,0.000619,-0.004646,40
1784563970565000,-3.778134,4.715365,7.730998,0.004313,0.000123,-0.003538,41
1784563970575000,-3.763658,4.724819,7.730716,0.004828,-0.001478,-0.003538,42
1784563970585000,-3.763797,4.710434,7.730820,0.004318,0.000128,-0.003005,43
1784563970595000,-3.763575,4.720091,7.740329,0.004312,-0.000932,-0.002465,44
1784563970605000,-3.768499,4.720069,7.730822,0.003783,-0.001448,-0.001386,45
1784563970615000,-3.754162,4.715138,7.730643,0.003248,-0.002496,-0.000303,46
1784563970625000,-3.768453,4.724864,7.730787,0.001628,-0.004070,-0.000265,47
1784563970635000,-3.758762,4.715285,7.745082,0.000049,-0.003505,0.001360,48
1784563970645000,-3.758818,4.729568,7.730610,0.000039,-0.003514,0.000294,49
1784563970655000,-3.749192,4.719955,7.740116,0.000578,-0.003516,0.000817,50
1784563970665000,-3.744657,4.719776,7.720888,-0.000494,-0.002452,-0.000770,51
1784563970675000,-3.749414,4.710299,7.730607,-0.000482,-0.001916,-0.000240,52
1784563970685000,-3.758892,4.715218,7.735503,0.000046,-0.002454,-0.000246,53
1784563970695000,-3.758892,4.715218,7.735503,-0.001011,-0.002432,0.000839,54
1784563970705000,-3.749460,4.705503,7.730641,-0.000477,-0.002439,0.000830,55
1784563970715000,-3.763759,4.700912,7.740468,0.000049,-0.003505,0.001360,56
1784563970725000,-3.758956,4.715184,7.730714,0.001105,-0.004583,0.001348,57
1784563970735000,-3.754033,4.715206,7.740222,-0.000502,-0.005093,0.001379,58
1784563970745000,-3.749349,4.710332,7.735396,-0.001020,-0.005074,0.002989,59
1784563970755000,-3.754143,4.710378,7.735467,-0.001002,-0.003479,0.002979,60
1784563970765000,-3.754208,4.710344,7.730678,-0.000474,-0.004018,0.002973,61
1784563970775000,-3.759095,4.700799,7.730818,-0.002081,-0.004528,0.003005,62
1784563970785000,-3.739687,4.724592,7.730361,-0.002609,-0.004517,0.003548,63
1784563970796000,-3.758938,4.710423,7.735538,-0.002609,-0.003990,0.003011,64
1784563970806000,-3.754125,4.705616,7.740291,-0.003155,-0.005046,0.003027,65
1784563970816000,-3.749331,4.705571,7.740220,-0.004756,-0.005025,0.003055,66
1784563970826000,-3.763732,4.710468,7.735609,-0.003688,-0.005039,0.003036,67
1784563970836000,-3.734901,4.710230,7.739972,-0.004767,-0.005561,0.002525,68
1784563970846000,-3.739742,4.705480,7.740078,-0.005834,-0.005547,0.002544,69
1784563970856000,-3.754033,4.715206,7.740222,-0.005283,-0.004487,0.003061,70
1784563970866000,-3.749368,4.715093,7.730572,-0.005834,-0.005547,0.002544,71
1784563970876000,-3.735031,4.710163,7.730393,-0.005823,-0.005012,0.003074,72
1784563970886000,-3.768415,4.715342,7.740435,-0.006896,-0.005529,0.003096,73
1784563970896000,-3.749423,4.695981,7.740289,-0.006909,-0.006593,0.003103,74
1784563970906000,-3.749579,4.686358,7.735569,-0.007444,-0.007641,0.004186,75
1784563970916000,-3.730227,4.691039,7.744829,-0.005843,-0.007662,0.004157,76
1784563970926000,-3.744545,4.691208,7.749831,-0.006366,-0.008174,0.005770,77
1784563970936000,-3.754022,4.696127,7.754728,-0.006359,-0.007115,0.005230,78
1784563970946000,-3.730227,4.691039,7.744829,-0.005275,-0.006589,0.006275,79
1784563970956000,-3.725294,4.705378,7.744654,-0.004200,-0.005016,0.005179,80
1784563970966000,-3.739677,4.705514,7.744867,-0.003671,-0.004499,0.004100,81
1784563970976000,-3.720370,4.705400,7.754161,-0.004210,-0.004497,0.003576,82
1784563970986000,-3.730061,4.714979,7.739867,-0.002620,-0.003998,0.001944,83
1784563970996000,-3.734910,4.695912,7.749654,-0.003154,-0.004519,0.002490,84
1784563971006000,-3.729867,4.715080,7.754234,-0.004772,-0.005038,0.001455,85
1784563971016000,-3.739704,4.695958,7.749725,-0.005289,-0.004491,0.002528,86
1784563971026000,-3.739742,4.705480,7.740078,-0.004767,-0.005561,0.002525,87
1784563971036000,-3.729986,4.695934,7.759162,-0.004221,-0.003977,0.001973,88
1784563971046000,-3.720638,4.690948,7.744687,-0.004233,-0.005041,0.001979,89
1784563971056000,-3.734956,4.691118,7.749689,-0.003692,-0.003988,0.001430,90
1784563971066000,-3.734734,4.700775,7.759199,-0.003158,-0.003468,0.000884,91
1784563971076000,-3.730032,4.691140,7.759197,-0.002624,-0.003475,0.000874,92
1784563971086000,-3.730097,4.691106,7.754407,-0.002613,-0.003467,0.001941,93
1784563971096000,-3.730273,4.686244,7.744864,-0.002613,-0.002939,0.001404,94
1784563971106000,-3.734789,4.681663,7.768916,-0.002068,-0.002938,0.002462,95
1784563971116000,-3.730051,4.695901,7.754373,-0.002074,-0.002942,0.001928,96
1784563971126000,-3.725035,4.705512,7.763811,-0.002074,-0.003469,0.002465,97
1784563971136000,-3.729848,4.710319,7.759058,-0.001547,-0.004008,0.002459,98
1784563971146000,-3.739639,4.695992,7.754515,-0.001535,-0.003472,0.002989,99
1784563971156000,-3.720462,4.695810,7.754231,-0.001523,-0.002409,0.002982,100
1784563971166000,-3.729921,4.695968,7.763951,-0.000450,-0.002419,0.003497,101
1784563971176000,-3.725173,4.691128,7.763915,-0.000450,-0.001891,0.002960,102
1784563971186000,-3.739593,4.700787,7.754480,-0.000438,-0.001355,0.003490,103
1784563971196000,-3.739621,4.691230,7.759339,0.001163,-0.001376,0.003462,104
1784563971206000,-3.725007,4.715068,7.758953,0.000618,-0.001905,0.002941,105
1784563971216000,-3.730116,4.695867,7.749583,0.000628,-0.002424,0.004545,106
1784563971226000,-3.729829,4.705557,7.763882,0.000076,-0.003485,0.004027,107
1784563971236000,-3.729986,4.695934,7.759162,0.000082,-0.003480,0.004560,108
1784563971246000,-3.749080,4.691388,7.769060,-0.000448,-0.004524,0.006177,109
1784563971256000,-3.725284,4.686299,7.759161,0.000091,-0.004527,0.006700,110
1784563971266000,-3.729829,4.705557,7.763882,-0.000455,-0.005584,0.006716,111
1784563971276000,-3.749310,4.667414,7.769233,-0.000439,-0.006099,0.008853,112
1784563971286000,-3.724850,4.724691,7.763672,-0.005819,-0.009751,0.008970,113
1784563971296000,-3.739962,4.662428,7.754757,-0.001513,-0.007144,0.009412,114
1784563971306000,-3.729959,4.705491,7.754303,-0.007973,-0.012373,0.010091,115
1784563971316000,-3.749430,4.648268,7.774161,-0.003660,-0.008180,0.009456,116
1784563971326000,-3.710597,4.724489,7.753881,-0.003666,-0.008711,0.009459,117
1784563971336000,-3.687373,4.666623,7.739574,-0.003137,-0.007667,0.007843,118
1784563971346000,-3.748573,4.744131,7.768678,0.001685,-0.006135,0.007749,119
1784563971356000,-3.696989,4.657158,7.744575,-0.001522,-0.005570,0.006735,120
1784563971366000,-3.738965,4.739279,7.773360,-0.002612,-0.006627,0.005694,121
1784563971376000,-3.682209,4.671540,7.763414,0.000633,-0.002420,0.005078,122
1784563971386000,-3.715917,4.676552,7.749509,-0.000962,-0.001868,0.005103,123
1784563971396000,-3.700712,4.715010,7.782544,0.000089,-0.001894,0.003484,124
1784563971406000,-3.706107,4.686118,7.758876,0.001175,-0.000313,0.003455,125
1784563971416000,-3.715750,4.667097,7.768736,0.000635,-0.000837,0.003468,126
1784563971426000,-3.715446,4.705421,7.763669,0.001181,0.000219,0.003452,127
1784563971436000,-3.705958,4.681424,7.773279,0.002238,0.000197,0.002366,128
1784563971446000,-3.710790,4.690992,7.763702,0.002777,0.000721,0.002354,129
1784563971456000,-3.715492,4.700627,7.763704,0.003310,0.000187,0.002881,130
1784563971466000,-3.706125,4.690880,7.754052,0.003300,0.000706,0.001278,131
1784563971476000,-3.705996,4.690947,7.763631,0.002767,0.000713,0.001287,132
1784563971486000,-3.715455,4.691104,7.773352,0.004379,0.001228,0.001789,133
1784563971496000,-3.715584,4.691037,7.763773,0.004368,0.001220,0.000722,134
1784563971506000,-3.705950,4.695741,7.763597,0.005442,0.002265,0.000163,135
1784563971516000,-3.715584,4.691037,7.763773,0.004915,0.002804,0.000169,136
1784563971526000,-3.705885,4.695775,7.768386,0.005436,0.001734,0.000166,137
1784563971536000,-3.710809,4.695753,7.758878,0.004909,0.002800,-0.000364,138
1784563971546000,-3.710652,4.705376,7.763598,0.005432,0.002257,-0.000904,139
1784563971556000,-3.701340,4.676517,7.763664,0.005959,0.001191,-0.000373,140
1784563971566000,-3.705820,4.695808,7.773175,0.004897,0.001209,0.000179,141
1784563971576000,-3.715538,4.695832,7.763739,0.004897,0.001209,0.000179,142
